aX,aY,aZ,gX,gY,gZ,ts
0.084,0.992,-1.838,360.596,-99.487,-42.664,0
0.193,1.083,-1.959,341.736,-146.912,-50.598,0
0.346,1.221,-2.049,325.684,-199.219,-64.27,0
0.522,1.323,-2.119,305.542,-257.141,-84.473,0
0.781,1.418,-2.199,281.921,-313.293,-104.858,0
1.021,1.453,-2.246,249.817,-356.628,-125.916,0
1.172,1.476,-2.235,210.144,-381.653,-142.883,0
1.17,1.368,-2.114,161.987,-392.334,-155.151,0
1.223,1.344,-1.976,114.746,-394.836,-169.556,0
1.058,1.159,-1.805,70.557,-394.531,-173.157,0
1.05,1.031,-1.66,27.039,-399.902,-196.35,0
0.943,0.934,-1.518,9.338,-401.855,-188.477,0
0.878,0.7,-1.426,-10.315,-399.902,-192.444,0
0.97,0.883,-1.208,-14.587,-391.296,-185.425,0
0.511,0.467,-1.02,-34.058,-386.597,-173.401,0
0.947,0.512,-0.995,-45.288,-401.672,-223.267,0
0.824,0.598,-0.923,-26.245,-390.625,-193.665,0
0.659,0.544,-0.756,-41.382,-376.343,-195.618,0
0.738,0.544,-0.651,-63.232,-374.695,-204.468,0
0.626,0.505,-0.583,-74.646,-356.873,-193.176,0
0.562,0.489,-0.503,-95.398,-332.886,-201.477,0
0.378,0.446,-0.406,-116.821,-313.477,-213.501,0
0.246,0.361,-0.292,-134.155,-307.129,-219.788,0
0.178,0.303,-0.2,-146.179,-309.509,-227.905,0
0.065,0.188,-0.096,-149.963,-312.195,-225.83,0
0.044,0.099,-0.013,-149.109,-321.167,-235.291,0
0.021,0.04,0.019,-136.536,-332.214,-237.671,0
0.038,0.011,0.06,-120.117,-340.21,-225.708,0
0.004,0.012,0.097,-105.286,-347.229,-209.351,0
-0.076,-0.011,0.139,-96.619,-353.699,-197.754,0
-0.122,-0.004,0.215,-90.637,-368.042,-186.34,0
-0.026,-0.05,0.272,-85.022,-393.738,-177.429,0
-0.016,-0.101,0.245,-79.651,-419.25,-184.509,0
-0.079,-0.081,0.226,-76.782,-438.904,-190.918,0
-0.061,0.006,0.3,-79.956,-451.355,-193.604,0
-0.123,-0.036,0.393,-89.783,-464.05,-195.129,0
-0.097,-0.097,0.409,-97.046,-469.421,-198.547,0
-0.017,-0.145,0.343,-93.933,-463.684,-190.002,0
-0.03,-0.078,0.315,-86.365,-453.552,-180.176,0
-0.025,0.043,0.255,-88.745,-447.51,-160.706,0
-0.006,0.122,0.21,-102.173,-430.359,-139.771,0
-0.063,0.22,0.286,-126.465,-414.307,-134.399,0
-0.011,0.243,0.47,-165.527,-397.705,-134.033,0
-0.038,0.235,0.505,-201.721,-347.412,-146.118,0
-0.094,0.282,0.507,-225.647,-285.156,-151.184,0
-0.172,0.237,0.643,-247.742,-248.535,-146.301,0
-0.183,0.129,0.863,-256.042,-221.313,-135.498,0
-0.207,0.198,1.137,-244.507,-180.359,-120.361,0
-0.132,0.29,1.485,-230.408,-140.808,-100.891,0
-0.07,0.317,1.857,-224.121,-120.667,-91.431,0
0.026,0.418,2.193,-215.393,-98.816,-83.862,0
0.067,0.417,2.538,-204.163,-63.538,-83.435,0
0.154,0.503,2.904,-180.176,-29.724,-83.923,0
0.167,0.523,3.139,-144.287,4.333,-81.787,0
0.16,0.563,3.227,-101.379,37.72,-87.341,0
0.247,0.524,3.243,-58.838,58.899,-89.233,0
0.38,0.446,3.17,-15.442,77.759,-88.745,0
0.556,0.384,3.006,29.785,106.384,-87.769,0
0.654,0.389,2.778,69.641,150.146,-89.6,0
0.728,0.361,2.589,97.778,202.637,-97.412,0
0.806,0.376,2.373,116.76,252.869,-111.45,0
0.842,0.422,2.117,124.939,303.711,-132.141,0
0.913,0.403,1.945,123.718,354.614,-150.94,0
0.877,0.356,1.821,116.089,406.067,-170.349,0
0.82,0.411,1.669,108.765,456.238,-195.923,0
0.715,0.484,1.496,100.342,495.85,-228.027,0
0.568,0.493,1.349,83.923,520.752,-259.46,0
0.42,0.455,1.215,65.247,535.034,-288.696,0
0.325,0.405,1.071,51.575,534.851,-311.279,0
0.209,0.393,0.953,40.649,522.217,-330.688,0
0.112,0.334,0.846,33.875,496.826,-337.524,0
0.027,0.219,0.763,26.978,463.074,-341.431,0
-0.097,0.228,0.705,23.01,431.641,-338.989,0
-0.298,0.187,0.651,18.188,396.24,-320.984,0
-0.52,0.053,0.621,11.719,355.164,-291.931,0
-0.64,-0.094,0.58,11.963,305.847,-253.357,0
-0.597,-0.255,0.643,19.348,253.296,-207.153,0
-0.552,-0.366,0.416,35.767,218.994,-156.494,0
-0.54,-0.194,0.259,56.396,171.814,-103.455,0
-0.505,-0.328,0.206,54.871,141.235,-60.608,0
-0.575,-0.227,0.192,58.167,123.596,-24.597,0
-0.566,-0.351,0.158,59.021,102.112,-4.944,0
-0.512,-0.419,0.094,66.895,78.064,11.963,0
-0.476,-0.384,0.014,75.073,68.909,25.33,0
-0.634,-0.378,-0.009,71.96,83.618,46.204,0
-0.737,-0.453,0.005,59.204,102.356,79.834,0
-0.715,-0.422,-0.042,52.368,108.459,135.071,0
-0.802,-0.757,-0.03,45.349,105.713,181.824,0
-0.684,-0.554,-0.073,49.866,105.103,180.908,0
-0.605,-0.453,-0.189,54.382,117.188,215.759,0
-0.544,-0.542,-0.267,44.861,129.517,250.916,0
-0.408,-0.354,-0.374,43.335,124.329,254.7,0
-0.124,-0.222,-0.494,44.922,95.52,253.113,0
0.081,-0.289,-0.539,37.292,51.147,233.093,0
0.517,0.441,-0.606,38.635,-14.343,189.758,0
1.189,0.452,-0.622,34.18,-73.364,210.632,0
1.621,0.72,-0.445,27.039,-73.669,239.563,1
1.984,0.773,-0.284,18.005,-50.781,232.483,1
2.2,1.067,-0.177,30.518,-18.86,207.458,1
2.473,1.282,-0.163,36.865,9.399,170.105,1
2.533,1.347,-0.175,39.673,21.973,127.197,1
2.396,1.433,-0.155,29.419,21.912,74.768,1
2.287,1.18,-0.162,17.273,10.071,53.345,1
2.08,0.889,-0.133,10.376,4.517,40.894,1
1.862,0.647,-0.15,11.597,-2.502,20.386,1
1.616,0.5,-0.184,15.747,-9.827,0.793,1
1.433,0.323,-0.188,19.653,-20.264,-10.498,1
1.36,0.223,-0.198,24.353,-31.555,-20.02,1
1.221,0.161,-0.21,29.724,-32.898,-14.16,1
1.183,0.146,-0.227,29.663,-30.884,-5.615,1
1.122,0.101,-0.219,23.926,-26.184,-4.028,1
1.078,0.125,-0.243,15.137,-19.897,-4.639,1
0.983,-0.071,-0.193,3.906,-7.69,-0.122,1
0.898,-0.036,-0.163,-7.08,-1.526,-13.306,1
0.879,-0.062,-0.146,-13.245,-0.916,-15.198,1
0.849,-0.076,-0.1,-16.541,2.747,-11.658,1
0.824,-0.102,-0.073,-15.32,4.211,-4.089,1
0.863,-0.081,-0.064,-12.451,4.456,-5.188,1
0.85,0.02,-0.065,-5.249,9.46,-0.793,1
-0.131,1.234,-1.682,346.497,15.747,-62.134,0
0.021,1.293,-2.107,298.462,-50.415,-77.515,0
0.227,1.281,-2.411,253.296,-110.84,-85.693,0
0.356,1.183,-2.601,221.619,-155.884,-80.811,0
0.494,1.122,-2.699,210.144,-197.266,-77.209,0
0.639,1.22,-2.752,220.825,-238.464,-74.951,0
0.81,1.333,-2.757,225.891,-275.391,-76.538,0
0.937,1.411,-2.724,212.219,-300.903,-81.177,0
0.969,1.422,-2.633,175.598,-312.256,-96.985,0
0.882,1.342,-2.444,132.507,-313.538,-107.544,0
0.785,1.218,-2.213,88.257,-321.838,-121.643,0
0.67,1.122,-1.995,47.485,-342.224,-140.442,0
0.708,0.961,-1.836,15.015,-370.911,-149.17,0
0.521,0.789,-1.538,-0.122,-397.888,-136.047,0
0.65,0.726,-1.363,-19.043,-431.946,-165.039,0
0.737,0.677,-1.188,-3.113,-448.242,-156.067,0
0.429,0.836,-0.985,2.625,-467.712,-140.808,0
0.701,0.443,-0.87,-6.042,-515.747,-98.816,0
0.802,0.223,-0.812,-9.338,-518.005,-153.32,0
0.813,0.542,-0.724,24.109,-488.22,-179.81,0
0.709,0.601,-0.644,28.992,-459.778,-164.856,0
0.638,0.394,-0.532,2.869,-435.425,-178.345,0
0.734,0.435,-0.473,-22.705,-414.124,-223.45,0
0.543,0.267,-0.399,-33.875,-390.015,-219.666,0
0.582,0.356,-0.301,-41.199,-360.901,-227.051,0
0.5,0.276,-0.242,-46.082,-347.9,-189.88,0
0.267,0.043,-0.154,-61.218,-336.914,-204.224,0
0.214,-0.011,-0.058,-63.354,-348.267,-246.155,0
0.32,0.122,-0.075,-50.232,-370.361,-244.568,0
0.3,0.015,-0.058,-45.898,-367.371,-220.154,0
0.25,-0.096,-0.009,-50.171,-358.948,-230.469,0
0.225,-0.07,0.033,-45.837,-353.333,-233.032,0
0.182,-0.058,0.118,-45.166,-342.773,-235.229,0
0.194,-0.054,0.198,-48.584,-331.238,-242.798,0
0.093,-0.062,0.266,-50.537,-318.359,-238.525,0
0,-0.093,0.314,-53.772,-317.078,-238.77,0
-0.036,-0.087,0.317,-56.458,-330.811,-234.68,0
-0.043,-0.128,0.291,-59.021,-350.83,-220.398,0
-0.074,-0.175,0.281,-61.646,-367.004,-210.876,0
-0.084,-0.197,0.35,-65.063,-387.268,-210.999,0
-0.022,-0.225,0.403,-63.049,-401.855,-211.609,0
0.02,-0.258,0.454,-54.077,-393.494,-210.449,0
-0.101,-0.234,0.46,-40.283,-370.3,-203.735,0
-0.185,-0.22,0.444,-25.085,-351.44,-184.998,0
-0.192,-0.224,0.411,-10.132,-338.989,-162.354,0
-0.137,-0.135,0.323,0.427,-328.003,-143.005,0
-0.175,0,0.22,-7.568,-315.063,-135.803,0
-0.252,0.074,0.106,-41.87,-303.101,-142.578,0
-0.337,0.168,0.054,-94.971,-295.105,-157.104,0
-0.409,0.231,0.186,-160.156,-291.321,-177.917,0
-0.447,0.115,0.462,-228.333,-280.579,-200.134,0
-0.474,-0.051,0.662,-270.508,-254.333,-208.984,0
-0.412,-0.104,0.794,-279.297,-227.112,-200.073,0
-0.296,-0.113,0.972,-270.996,-206.116,-178.894,0
-0.208,-0.129,1.149,-256.409,-195.984,-151.611,0
-0.234,-0.091,1.305,-238.159,-187.5,-122.07,0
-0.286,0.09,1.489,-222.107,-175.293,-98.389,0
-0.354,0.208,1.796,-219.91,-160.461,-83.984,0
-0.426,0.289,2.112,-225.22,-135.986,-78.186,0
-0.43,0.403,2.311,-218.384,-107.178,-75.562,0
-0.478,0.481,2.53,-191.467,-82.214,-76.721,0
-0.502,0.617,2.689,-150.024,-53.711,-75.378,0
-0.597,0.667,2.73,-110.046,-24.902,-75.684,0
-0.455,0.528,2.724,-75.684,3.113,-66.956,0
-0.372,0.62,2.651,-39.673,26.978,-63.049,0
-0.271,0.526,2.591,-4.15,70.984,-52.917,0
-0.159,0.629,2.455,29.663,113.77,-58.96,0
-0.066,0.563,2.356,49.194,162.537,-60.364,0
-0.016,0.514,2.239,61.646,205.566,-76.416,0
0.039,0.53,2.123,68.359,239.746,-93.506,0
0.2,0.417,1.966,69.031,266.418,-108.032,0
0.302,0.339,1.828,75.378,299.194,-126.221,0
0.39,0.329,1.699,85.815,334.656,-137.451,0
0.405,0.285,1.645,94.543,364.685,-149.17,0
0.461,0.195,1.602,104.736,380.432,-170.105,0
0.608,0.225,1.487,123.169,402.344,-191.956,0
0.627,0.325,1.369,138.855,441.04,-211.853,0
0.547,0.403,1.26,141.724,479.98,-238.098,0
0.497,0.499,1.112,132.629,511.78,-266.235,0
0.305,0.612,0.988,110.046,529.053,-284.668,0
0.193,0.515,0.847,76.05,531.25,-294.189,0
0.04,0.517,0.755,41.931,527.588,-306.519,0
-0.052,0.37,0.715,12.573,508.85,-309.448,0
-0.028,0.178,0.698,-9.705,477.6,-321.106,0
-0.052,0.201,0.634,-17.334,449.707,-330.261,0
-0.058,0.144,0.598,-22.4,432.983,-334.473,0
-0.098,0.054,0.57,-22.278,422.913,-323.975,0
-0.18,0.01,0.52,-20.142,415.955,-310.913,0
-0.362,0.006,0.473,-19.287,407.104,-292.419,0
-0.578,-0.104,0.458,-23.499,387.329,-268.494,0
-0.686,-0.186,0.723,-25.879,348.633,-247.498,0
-0.725,-0.382,0.629,-17.883,312.317,-219.971,0
-0.903,-0.267,0.331,0.061,250,-177.49,0
-0.684,-0.469,0.285,18.982,178.833,-128.418,0
-0.61,-0.416,0.228,45.105,147.888,-59.509,0
-0.644,-0.397,0.224,54.016,130.615,-3.967,0
-0.649,-0.456,0.246,57.19,109.863,47.058,0
-0.622,-0.35,0.224,70.19,87.341,107.361,0
-0.432,-0.658,0.14,76.172,71.594,160.889,0
-0.528,-0.756,0.096,72.998,65.063,94.299,0
-0.395,-0.195,0.015,106.262,72.266,78.43,0
-0.223,-0.321,-0.087,120.911,73.486,167.419,0
-0.219,-0.555,-0.056,105.835,94.421,189.392,0
-0.139,-0.471,-0.122,110.352,109.802,203.491,0
-0.119,-0.244,-0.255,117.004,127.014,223.755,0
-0.108,-0.098,-0.395,116.821,134.644,254.883,0
0.009,-0.002,-0.527,104.614,112.732,272.339,1
0.388,0.115,-0.663,96.375,54.199,276.978,1
0.969,0.318,-0.707,96.924,-23.499,265.747,1
1.634,0.654,-0.738,98.816,-89.417,244.446,1
2.245,0.886,-0.678,86.365,-115.234,213.135,1
2.683,0.915,-0.557,64.941,-98.328,174.927,1
2.925,1.234,-0.522,44.739,-52.612,124.695,1
2.817,1.018,-0.439,25.208,5.31,107.361,1
2.61,0.949,-0.409,4.333,43.701,51.331,1
2.268,0.476,-0.384,5.981,53.284,0,1
1.961,0.828,-0.354,17.7,29.724,-55.054,1
1.782,0.523,-0.324,25.452,-2.197,-3.662,1
1.565,0.07,-0.271,20.203,-33.752,26.794,1
-0.03,1.663,-1.389,338.684,-118.652,-70.557,0
0.185,1.624,-1.723,275.085,-187.073,-95.947,0
0.308,1.526,-1.935,227.966,-237.122,-113.892,0
0.363,1.424,-1.958,208.13,-275.208,-132.568,0
0.486,1.455,-1.894,215.82,-316.467,-151.917,0
0.637,1.55,-1.785,223.45,-362,-179.443,0
0.929,1.656,-1.702,222.961,-401.062,-199.463,0
1.17,1.633,-1.597,210.876,-419.8,-204.163,0
1.377,1.663,-1.441,186.951,-412.17,-206.665,0
1.489,1.653,-1.311,147.644,-387.085,-208.862,0
1.449,1.489,-1.188,107.849,-358.643,-204.224,0
1.363,1.18,-1.005,75.256,-341.858,-207.764,0
1.453,1.198,-0.895,58.96,-340.576,-231.445,0
1.139,0.924,-0.689,57.251,-350.22,-228.76,0
1.313,0.815,-0.595,53.162,-375.366,-277.1,0
1.162,0.855,-0.485,68.604,-384.521,-274.597,0
0.903,0.69,-0.326,68.176,-401.917,-268.982,0
1.057,0.432,-0.274,65.491,-432.068,-302.795,0
1.095,0.411,-0.243,79.651,-440.063,-342.468,0
1.031,0.448,-0.234,97.046,-420.41,-357.056,0
0.967,0.486,-0.237,99.792,-389.648,-365.051,0
0.802,0.469,-0.224,86.182,-364.38,-364.441,0
0.743,0.328,-0.199,64.453,-344.421,-369.324,0
0.612,0.245,-0.192,49.438,-326.599,-382.446,0
0.501,0.228,-0.2,40.1,-313.843,-383.972,0
0.372,0.265,-0.204,23.376,-306.091,-379.7,0
0.277,0.156,-0.177,-1.831,-304.749,-370.972,0
0.192,0.05,-0.117,-19.409,-307.19,-362.976,0
0.162,-0.04,-0.072,-25.635,-306.58,-351.318,0
0.043,-0.101,-0.08,-28.564,-310.974,-346.436,0
0.033,-0.204,-0.078,-27.71,-322.693,-339.111,0
0.1,-0.165,-0.131,-21.118,-334.839,-331.787,0
0.098,-0.067,-0.197,-27.283,-337.646,-328.674,0
0.012,-0.031,-0.183,-51.514,-336.731,-326.721,0
0.004,-0.047,-0.102,-75.012,-334.351,-317.627,0
0.051,-0.062,-0.05,-88.745,-325.378,-310.669,0
-0.001,0.029,-0.085,-97.839,-301.941,-305.847,0
-0.044,0.077,-0.091,-115.906,-272.4,-290.039,0
-0.137,0.075,-0.112,-141.602,-246.826,-277.1,0
-0.228,0.094,-0.113,-167.786,-223.999,-259.094,0
-0.36,0.062,-0.042,-195.679,-206.238,-241.211,0
-0.489,0.069,-0.006,-221.741,-206.665,-228.333,0
-0.461,0.064,-0.021,-240.723,-224.976,-217.285,0
-0.347,0.21,0.049,-253.906,-240.906,-212.524,0
-0.382,0.469,0.114,-283.936,-249.084,-213.196,0
-0.419,0.512,0.37,-337.402,-249.634,-215.027,0
-0.444,0.379,0.733,-385.803,-226.99,-203.247,0
-0.261,0.085,1.131,-397.827,-177.551,-171.509,0
-0.079,-0.219,1.381,-369.446,-112,-129.028,0
-0.233,-0.204,1.544,-299.255,-42.175,-82.947,0
-0.382,0.185,1.656,-212.463,9.888,-38.269,0
-0.368,0.678,1.73,-153.687,19.226,-10.376,0
-0.372,1.059,1.874,-142.7,0.183,-1.953,0
-0.481,1.313,2.089,-165.039,-24.475,-12.878,0
-0.368,1.418,2.483,-193.298,-41.321,-34.668,0
-0.277,1.271,2.87,-213.44,-27.832,-53.65,0
-0.058,0.947,3.097,-198.914,8.85,-65.613,0
0.07,0.777,3.166,-141.113,63.66,-71.655,0
0.117,0.744,3.103,-63.171,123.901,-73.364,0
0.083,0.708,2.9,9.521,171.692,-73.792,0
0.148,0.759,2.596,69.885,200.684,-75.684,0
0.302,0.733,2.292,109.07,220.947,-80.933,0
0.447,0.661,2.036,126.892,239.807,-88.013,0
0.537,0.602,1.809,131.042,263.428,-97.534,0
0.592,0.57,1.62,125.61,293.64,-111.084,0
0.569,0.479,1.476,111.267,325.378,-128.54,0
0.653,0.31,1.377,98.572,353.394,-145.447,0
0.646,0.292,1.247,92.834,372.803,-168.518,0
0.671,0.224,1.086,92.529,386.841,-185.669,0
0.633,0.175,0.994,91.736,398.987,-211.182,0
0.55,0.229,0.904,96.863,406.86,-232.544,0
0.397,0.237,0.78,93.262,409.424,-251.892,0
0.232,0.205,0.667,82.886,402.1,-263.123,0
0.172,0.145,0.564,70.801,385.315,-268.25,0
0.173,0.089,0.493,58.228,365.54,-269.897,0
0.223,0.047,0.471,49.072,346.191,-263.123,0
0.166,-0.002,0.444,40.039,331.909,-259.766,0
0.154,0.002,0.47,35.278,321.777,-255.432,0
0.027,0.029,0.437,30.579,325.684,-247.803,0
-0.03,-0.094,0.38,25.33,331.604,-236.389,0
-0.041,-0.14,0.286,19.47,329.651,-224.976,0
-0.129,-0.181,0.279,6.165,325.745,-217.957,0
-0.181,-0.205,0.299,-3.479,324.036,-206.787,1
-0.274,-0.297,0.31,-9.216,316.956,-189.758,1
-0.35,-0.39,0.302,-4.944,301.331,-165.466,1
-0.554,-0.329,0.282,5.188,277.466,-133.057,1
-0.529,-0.62,0.277,7.69,243.225,-100.281,1
-0.335,-0.809,0.271,10.803,209.961,-138.245,1
-0.516,-0.584,0.236,53.223,192.139,-124.817,1
-0.552,-0.457,0.171,89.844,174.377,-55.115,1
-0.526,-0.476,0.131,98.755,155.701,14.16,1
-0.47,-0.519,0.042,100.159,137.939,70.496,1
-0.33,-0.506,-0.042,104.37,127.014,119.446,1
-0.244,-0.536,-0.069,104.553,137.207,163.757,1
-0.23,-0.518,-0.053,107.239,154.724,202.698,1
-0.122,-0.261,-0.118,118.347,161.194,238.342,1
0.056,-0.149,-0.319,127.747,149.414,260.437,1
0.391,0.179,-0.545,132.935,117.432,261.536,1
0.82,0.374,-0.698,127.014,66.772,240.723,1
1.339,0.482,-0.727,111.206,16.724,201.721,1
1.67,0.581,-0.683,87.219,-13.306,151.306,1
1.918,0.668,-0.635,70.374,-29.419,123.047,1
2.263,0.804,-0.638,64.636,-34.79,117.126,1
2.309,0.8,-0.58,64.087,-20.752,129.639,1
2.342,0.67,-0.534,50.476,-6.897,95.276,1
2.164,0.958,-0.537,54.138,5.066,65.613,1
1.984,0.695,-0.498,47.852,15.93,84.473,1
1.767,0.464,-0.464,31.25,10.315,69.58,1
1.555,0.433,-0.436,25.208,-7.568,35.95,1
1.416,0.249,-0.394,19.409,-30.212,18.555,1
1.287,0.119,-0.362,15.93,-48.828,3.296,1
1.166,0.071,-0.335,17.7,-60.303,-6.775,1
1.08,-0.001,-0.312,17.395,-66.589,-10.986,1
1.052,-0.02,-0.297,14.832,-65.979,-13.611,1
1.002,-0.031,-0.282,10.864,-55.359,-9.583,1
0.939,-0.085,-0.267,4.456,-39.063,-5.066,1
0.87,-0.103,-0.235,-0.793,-24.414,-3.052,1
0.813,-0.122,-0.223,-5.31,-14.954,-1.587,1
0.754,-0.14,-0.206,-8.179,-11.719,-0.549,1
-0.052,1.419,-1.323,370.361,-134.216,-9.094,0
0.195,1.518,-1.464,356.384,-179.016,-38.574,0
0.329,1.656,-1.548,341.003,-212.891,-72.937,0
0.487,1.72,-1.593,322.998,-242.676,-105.286,0
0.653,1.847,-1.596,301.208,-270.264,-144.836,0
0.849,1.911,-1.556,274.963,-288.879,-177.002,0
0.902,1.997,-1.463,248.047,-295.166,-202.454,0
0.919,1.927,-1.259,208.13,-295.959,-219.36,0
1.1,1.973,-1.198,169.006,-300.598,-244.507,0
1.063,1.834,-1.033,149.719,-300.049,-224.182,0
1.096,1.519,-0.927,127.258,-309.204,-230.103,0
1.112,1.504,-0.812,125.244,-315.247,-253.052,0
1.01,1.489,-0.669,119.873,-335.693,-243.042,0
0.993,1.126,-0.585,101.746,-359.985,-241.15,0
1.067,0.877,-0.513,100.83,-371.216,-279.907,0
1.162,0.91,-0.428,120.483,-369.751,-321.289,0
1.096,0.948,-0.334,134.338,-362.915,-340.881,0
1.045,0.913,-0.26,137.329,-356.323,-348.328,0
1.027,0.803,-0.205,134.277,-347.351,-353.088,0
1.093,0.66,-0.585,129.944,-336.914,-373.413,0
0.919,0.584,0.109,140.93,-338.623,-404.419,0
1.133,0.707,0.01,163.452,-292.358,-418.823,0
0.901,0.899,-0.018,158.081,-262.939,-424.072,0
0.777,0.763,-0.032,126.587,-251.038,-428.955,0
0.682,0.453,-0.085,101.501,-257.568,-443.298,0
0.582,0.404,-0.135,83.618,-280.396,-452.087,0
0.485,0.35,-0.149,62.927,-288.818,-455.261,0
0.279,0.226,-0.142,45.837,-292.908,-449.768,0
0.171,0.153,-0.197,40.588,-295.898,-430.603,0
0.258,0.064,-0.29,39.368,-295.837,-408.02,0
0.367,0.01,-0.265,39.307,-292.358,-393.921,0
0.353,0.09,-0.158,31.921,-280.09,-392.212,0
0.207,0.143,-0.045,11.23,-256.348,-394.836,0
0.143,0.134,0.019,-13.428,-235.657,-390.564,0
0.019,0.093,-0.013,-37.72,-227.905,-385.864,0
-0.057,0.072,-0.031,-60.059,-234.68,-376.221,0
-0.015,0.057,-0.042,-78.552,-244.568,-358.093,0
-0.053,-0.005,-0.048,-97.29,-250.671,-346.985,0
-0.092,-0.024,-0.068,-112.549,-251.709,-337.097,0
-0.084,-0.057,-0.065,-124.512,-247.131,-322.693,0
-0.088,-0.039,-0.043,-132.202,-239.197,-313.293,0
-0.139,0.068,-0.026,-142.029,-226.807,-305.115,0
-0.266,0.103,0.083,-164.307,-205.933,-299.5,0
-0.444,0.043,0.205,-187.317,-187.256,-296.814,0
-0.521,0.019,0.241,-196.655,-185.669,-287.72,0
-0.508,0.068,0.28,-199.951,-199.463,-273.315,0
-0.515,0.084,0.307,-203.674,-217.102,-259.888,0
-0.446,0.171,0.411,-208.496,-230.408,-245.911,0
-0.359,0.223,0.583,-223.328,-220.459,-231.201,0
-0.406,0.211,0.743,-246.155,-178.284,-216.37,0
-0.443,0.102,0.95,-267.395,-127.38,-190.796,0
-0.493,-0.016,1.164,-268.066,-78.43,-159.729,0
-0.58,-0.067,1.42,-246.216,-40.161,-128.479,0
-0.593,-0.099,1.573,-213.074,-26.428,-96.619,0
-0.545,0.045,1.704,-172.668,-31.982,-77.148,0
-0.618,0.335,1.84,-141.418,-44.006,-72.937,0
-0.608,0.591,2.012,-137.573,-52.673,-75.073,0
-0.58,0.71,2.26,-157.959,-39.429,-75.806,0
-0.528,0.722,2.564,-180.054,-8.24,-73.547,0
-0.535,0.53,2.896,-180.908,32.898,-60.852,0
-0.581,0.315,3.022,-145.996,73.364,-58.533,0
-0.52,0.295,2.974,-74.768,105.225,-63.782,0
-0.435,0.339,2.839,3.235,135.193,-53.711,0
-0.284,0.42,2.628,62.439,162.415,-43.213,0
-0.093,0.384,2.429,98.816,196.411,-36.682,0
0.085,0.407,2.208,117.371,228.821,-40.1,0
0.205,0.309,1.965,121.765,266.296,-45.288,0
0.244,0.317,1.82,115.234,312.744,-60.425,0
0.257,0.337,1.664,107.544,342.896,-77.026,0
0.455,0.125,1.514,97.778,375.244,-85.876,0
0.431,0.176,1.381,93.506,410.583,-108.398,0
0.472,0.205,1.289,92.59,446.411,-125.549,0
0.456,0.214,1.132,87.524,467.651,-149.597,0
0.458,0.285,0.965,79.59,489.319,-171.143,0
0.371,0.243,0.853,62.561,500.122,-184.692,0
0.299,0.089,0.763,45.776,494.385,-201.782,0
0.191,0.062,0.732,38.391,482.544,-236.511,0
0.124,0.143,0.695,40.527,461.975,-255.92,0
0.109,0.179,0.647,35.706,428.772,-264.16,0
0.078,0.167,0.563,25.269,398.254,-266.602,0
0.025,0.072,0.593,15.564,370.544,-263.855,0
-0.07,-0.043,0.462,12.817,363.403,-257.446,0
-0.334,-0.044,0.282,14.709,350.769,-237.305,0
-0.423,-0.224,0.276,4.944,314.941,-212.708,0
-0.513,-0.306,0.268,-0.916,282.532,-177.856,0
-0.633,-0.397,0.237,0.366,234.863,-141.235,0
-0.617,-0.417,0.173,11.597,175.842,-104.736,0
-0.546,-0.429,0.136,30.396,124.023,-65.125,0
-0.424,-0.462,0.116,55.786,86.243,-25.635,0
-0.36,-0.346,0.102,81.177,59.814,8.118,0
-0.302,-0.288,0.059,90.698,47.058,36.621,1
-0.265,-0.202,-0.017,87.646,44.861,63.11,1
-0.168,-0.281,-0.086,77.148,57.617,87.952,1
0.062,-0.271,-0.145,56.58,90.332,99.548,1
-0.027,-0.509,-0.135,43.274,137.756,124.39,1
0.096,-0.388,-0.061,31.006,178.04,88.44,1
-0.187,0.007,-0.202,29.541,194.763,110.535,1
0.133,-0.204,-0.166,6.653,217.712,173.645,1
0.128,-0.282,-0.175,-4.456,212.891,197.327,1
0.228,-0.368,-0.193,1.343,170.898,162.537,1
0.679,0.418,-0.285,28.625,92.773,146.179,1
1.01,0.24,-0.266,18.677,32.227,160.583,1
1.579,0.346,-0.148,11.292,-23.743,154.236,1
2.111,0.637,-0.103,15.198,-52.063,143.188,1
2.441,0.489,0.049,14.404,-35.4,139.099,1
2.516,0.594,0.134,16.052,-3.784,110.718,1
2.37,0.689,0.14,20.935,35.278,85.144,1
2.211,0.563,0.113,21.24,61.34,74.402,1
1.961,0.525,0.098,24.17,71.167,60.12,1
1.808,0.344,0.056,25.391,51.88,43.091,1
1.633,0.491,-0.067,26.978,26.123,22.583,1
1.477,0.1,-0.024,20.752,15.015,21.729,1
1.331,0.008,-0.045,15.991,-0.122,-7.935,1
1.217,0.266,-0.069,24.475,-9.46,-11.719,1
1.103,0.044,-0.072,9.338,-15.991,13.611,1
1.017,-0.198,-0.051,-1.282,-13.55,28.687,1
0.993,-0.141,-0.044,1.282,-15.381,10.803,1
0.924,-0.111,-0.05,4.028,-13.306,-4.517,1
0.889,-0.093,-0.04,1.892,-9.583,-5.798,1
-0.095,1.139,-1.666,265.381,32.532,-49.805,0
-0.09,1.116,-1.778,243.286,-9.827,-61.707,0
-0.112,1.14,-1.864,239.441,-52.063,-69.824,0
-0.087,1.269,-1.919,244.995,-97.778,-80.261,0
0.032,1.39,-1.954,247.192,-144.043,-93.201,0
0.188,1.453,-1.969,249.268,-187.805,-113.403,0
0.369,1.551,-1.967,251.221,-226.135,-133.911,0
0.455,1.588,-1.91,245.422,-256.714,-143.616,0
0.642,1.581,-1.865,228.027,-279.541,-146.362,0
0.741,1.617,-1.729,204.773,-281.067,-144.104,0
0.59,1.488,-1.627,170.776,-271.851,-124.329,0
0.658,1.351,-1.532,136.902,-263.123,-145.935,0
0.497,1.371,-1.428,118.164,-256.592,-160.156,0
0.356,1.227,-1.33,104.309,-268.555,-159.119,0
0.429,1.074,-1.221,97.107,-294.739,-174.561,0
0.437,0.999,-1.108,101.929,-312.805,-189.636,0
0.462,1.023,-0.998,110.474,-322.205,-202.881,0
0.488,1.004,-0.876,111.511,-326.721,-211.06,0
0.485,0.915,-0.77,105.835,-326.05,-223.45,0
0.537,0.883,-0.72,98.999,-320.984,-244.08,0
0.584,0.833,-0.653,88.684,-312.5,-259.583,0
0.581,0.75,-0.604,76.904,-299.866,-271.24,0
0.557,0.704,-0.543,63.538,-289.368,-283.997,0
0.532,0.671,-0.486,47.668,-281.311,-297.119,0
0.451,0.607,-0.449,31.86,-274.536,-301.575,0
0.419,0.519,-0.432,20.203,-274.963,-308.35,0
0.51,0.348,-0.295,11.597,-283.203,-329.346,0
0.355,0.354,-0.302,6.897,-273.499,-347.656,0
0.267,0.304,-0.328,-0.427,-271.851,-361.938,0
0.248,0.218,-0.325,-8.728,-285.95,-370.239,0
0.22,0.203,-0.296,-16.968,-301.758,-376.343,0
0.142,0.186,-0.269,-28.076,-310.12,-383.179,0
0.122,0.129,-0.207,-40.222,-314.209,-383.667,0
0.115,0.056,-0.18,-49.927,-315.125,-391.541,0
0.063,0.062,-0.167,-57.617,-317.932,-398.682,0
-0.048,0.063,-0.097,-69.641,-327.087,-393.677,0
-0.156,0.02,0.006,-84.778,-345.398,-388.794,0
-0.154,-0.071,0.089,-96.802,-369.446,-383.362,0
-0.11,-0.113,0.146,-101.868,-389.221,-378.601,0
-0.102,-0.116,0.131,-102.844,-403.015,-372.925,0
-0.118,-0.074,0.112,-105.957,-408.63,-365.54,0
-0.16,-0.075,0.106,-112.976,-416.077,-355.042,0
-0.25,-0.027,0.04,-122.986,-428.833,-351.257,0
-0.235,0.012,0.003,-140.869,-441.956,-344.971,0
-0.162,0.027,0.09,-164.551,-444.519,-345.215,0
-0.169,0.119,0.304,-186.951,-419.495,-352.539,0
-0.252,0.141,0.52,-205.322,-357.727,-346.008,0
-0.335,0.063,0.594,-210.266,-288.696,-319.336,0
-0.322,0.026,0.624,-200.562,-237.061,-281.311,0
-0.342,0.099,0.611,-181.396,-196.289,-237.549,0
-0.373,0.146,0.657,-169.922,-172.485,-195.374,0
-0.459,0.167,0.678,-176.636,-165.344,-166.382,0
-0.538,0.264,0.678,-200.378,-166.626,-156.006,0
-0.613,0.341,0.828,-245.483,-173.828,-155.029,0
-0.658,0.186,1.062,-299.438,-182.251,-166.138,0
-0.618,0.1,1.282,-331.116,-176.697,-177.124,0
-0.56,0.191,1.465,-336.304,-161.865,-168.762,0
-0.442,0.333,1.646,-329.041,-141.602,-147.278,0
-0.377,0.423,1.815,-315.125,-122.375,-128.235,0
-0.39,0.586,2.003,-294.189,-102.234,-111.816,0
-0.443,0.791,2.235,-272.949,-71.716,-99.365,0
-0.489,1.023,2.511,-262.878,-27.039,-92.773,0
-0.416,0.979,2.661,-263.977,35.034,-72.937,0
-0.326,0.777,2.662,-247.498,98.755,-57.983,0
-0.366,0.655,2.592,-192.444,131.348,-46.204,0
-0.468,0.473,2.539,-108.215,116.76,-46.57,0
-0.157,0.462,2.364,-11.78,94.055,-64.026,0
0.008,0.565,2.163,72.083,112.732,-63.843,0
0.106,0.656,2.004,126.16,148.315,-60.242,0
0.193,0.795,1.888,146.057,181.519,-63.293,0
0.292,0.757,1.756,138.245,215.21,-68.909,0
0.367,0.68,1.673,118.835,252.686,-84.167,0
0.393,0.596,1.588,98.816,285.522,-101.807,0
0.391,0.446,1.522,85.693,313.416,-122.559,0
0.407,0.346,1.496,86.487,327.087,-146.912,0
0.454,0.311,1.413,98.389,337.402,-171.204,0
0.467,0.341,1.273,113.403,354.492,-196.899,0
0.48,0.38,1.126,122.742,363.037,-219.421,0
0.567,0.306,1.019,124.451,365.601,-238.953,0
0.448,0.36,0.903,122.314,373.718,-259.888,0
0.532,0.305,0.828,119.446,383.423,-268.921,0
0.519,0.352,0.737,109.131,385.437,-286.743,0
0.283,0.372,0.715,93.628,391.907,-289.246,0
0.223,0.36,0.629,75.989,396.179,-278.137,0
0.246,0.253,0.523,55.359,392.151,-260.62,0
0.096,0.154,0.491,35.889,389.282,-247.314,0
-0.03,0.083,0.466,22.827,378.296,-241.76,0
-0.148,0.055,0.4,13.611,346.68,-239.38,0
-0.159,-0.006,0.303,6.592,306.396,-234.802,0
-0.181,-0.093,0.203,1.038,270.386,-229.797,0
-0.228,-0.205,0.377,-3.54,246.399,-216.492,0
-0.187,-0.312,0.349,2.319,241.943,-191.956,0
-0.239,-0.375,0.179,9.216,225.525,-159.424,0
-0.106,-0.462,0.18,20.447,213.196,-124.023,0
-0.159,-0.31,0.234,34.973,227.661,-82.764,0
-0.346,-0.52,0.234,26.306,245.728,-71.411,0
-0.405,-0.59,0.318,21.729,255.249,-91.919,0
-0.702,-0.477,0.211,54.443,230.53,-18.127,0
-0.591,-0.462,0.093,74.158,177.429,58.167,0
-0.386,-0.525,0.004,87.83,123.413,107.056,0
-0.11,-0.398,-0.055,106.201,95.215,142.151,1
0.18,-0.315,-0.094,113.586,100.891,171.326,1
0.392,-0.238,-0.13,111.389,132.08,195.74,1
0.351,-0.177,-0.173,107.971,168.091,213.44,1
0.245,0.137,-0.298,104.614,178.711,221.13,1
0.348,0.197,-0.413,84.229,145.63,214.905,1
0.676,0.305,-0.519,65.857,71.838,196.777,1
1.141,0.313,-0.551,67.566,-23.315,182.8,1
1.873,0.665,-0.52,69.031,-97.656,141.968,1
2.433,0.661,-0.422,56.274,-114.563,127.747,1
2.581,0.714,-0.348,45.044,-73.12,104.553,1
2.476,0.863,-0.279,36.316,-8.057,77.637,1
2.201,0.63,-0.201,8.789,39.978,52.368,1
1.885,0.48,-0.173,-1.404,52.673,33.813,1
1.609,0.292,-0.18,-6.348,41.565,3.906,1
1.365,0.174,-0.175,1.709,19.714,-5.92,1
1.208,0.161,-0.144,16.357,-9.338,5.92,1
1.141,-0.067,-0.12,14.465,-37.048,5.31,1
1.134,-0.042,-0.106,17.517,-50.903,-10.071,1
-0.03,1.311,-1.587,353.271,34.851,-44.8,0
-0.146,1.64,-1.804,330.505,-23.56,-59.509,0
0.127,1.734,-2.191,263.123,-86.853,-85.144,0
0.204,1.819,-2.365,196.228,-110.107,-89.417,0
0.298,1.629,-2.39,154.114,-124.451,-38.269,0
0.243,1.431,-2.279,130.676,-145.264,-42.114,0
0.272,1.506,-2.146,126.343,-190.918,-70.984,0
0.337,1.444,-1.956,132.812,-233.276,-44.678,0
0.398,1.297,-1.772,118.103,-255.798,-39.246,0
0.359,1.179,-1.549,102.295,-270.02,-60.364,0
0.359,1.137,-1.337,88.562,-284.851,-87.769,0
0.345,1.088,-1.147,76.782,-298.767,-103.76,0
0.297,1.005,-1.023,64.819,-311.401,-116.15,0
0.324,0.967,-0.945,60.059,-329.285,-126.465,0
0.38,0.907,-0.915,58.472,-345.764,-132.507,0
0.388,0.78,-0.872,57.617,-356.262,-144.409,0
0.346,0.747,-0.812,58.35,-360.962,-168.213,0
0.328,0.691,-0.707,58.655,-370.789,-180.237,0
0.357,0.616,-0.639,59.326,-378.113,-195.679,0
0.376,0.608,-0.596,64.88,-382.568,-204.773,0
0.401,0.578,-0.567,69.031,-385.559,-214.417,0
0.406,0.526,-0.531,69.275,-383.85,-225.403,0
0.396,0.473,-0.477,65.125,-380.066,-238.77,0
0.384,0.415,-0.426,57.678,-372.681,-254.15,0
0.351,0.384,-0.401,48.279,-367.004,-267.273,0
0.316,0.329,-0.358,34.973,-365.051,-281.067,0
0.227,0.253,-0.301,22.583,-368.835,-296.509,0
0.197,0.204,-0.252,17.273,-383.24,-308.655,0
0.185,0.13,-0.236,16.357,-403.503,-317.139,0
0.191,0.1,-0.214,20.386,-425.415,-322.449,0
0.211,0.102,-0.174,21.729,-441.589,-328.064,0
0.136,0.083,-0.117,14.221,-447.144,-335.327,0
0.1,0.069,-0.036,1.343,-447.388,-343.262,0
0.095,0.017,0.054,-12.817,-448.303,-347.961,0
0.044,-0.037,0.144,-20.874,-445.74,-351.807,0
-0.011,-0.026,0.22,-20.02,-441.772,-350.464,0
-0.042,-0.01,0.281,-19.836,-442.261,-341.614,0
-0.02,-0.033,0.306,-25.33,-446.228,-329.285,0
0.01,-0.077,0.351,-31.372,-447.449,-316.833,0
0.032,-0.05,0.448,-34.546,-442.383,-307.495,0
0.029,-0.023,0.478,-42.725,-427.246,-299.805,0
0.027,-0.005,0.521,-57.678,-403.87,-290.527,0
-0.042,0.012,0.537,-75.073,-375.305,-280.334,0
-0.146,0.009,0.457,-93.201,-346.191,-269.897,0
-0.222,0.018,0.367,-112.671,-328.918,-260.681,0
-0.198,0.034,0.362,-135.01,-320.068,-253.662,0
-0.271,-0.084,0.385,-157.043,-311.768,-254.883,0
-0.296,-0.042,0.429,-167.847,-304.871,-256.165,0
-0.31,0.13,0.554,-187.5,-295.105,-262.207,0
-0.415,0.249,0.688,-223.45,-269.592,-270.142,0
-0.51,0.221,0.849,-265.442,-244.873,-269.531,0
-0.533,0.172,1.031,-290.771,-234.009,-258.484,0
-0.401,0.127,1.261,-297.729,-230.347,-232.727,0
-0.301,0.102,1.456,-285.583,-213.745,-198.73,0
-0.266,0.178,1.705,-264.709,-174.866,-160.645,0
-0.278,0.268,1.826,-249.207,-124.695,-124.756,0
-0.398,0.386,1.919,-232.91,-80.017,-100.098,0
-0.495,0.574,2.059,-212.769,-51.453,-92.041,0
-0.522,0.736,2.365,-192.017,-34.119,-94.788,0
-0.478,0.82,2.548,-171.082,-12.39,-103.027,0
-0.326,0.749,2.616,-140.564,20.203,-105.408,0
-0.188,0.739,2.656,-97.778,64.514,-106.018,0
-0.048,0.695,2.644,-55.237,113.281,-95.398,0
0.066,0.674,2.503,-14.954,177.917,-82.336,0
0.195,0.651,2.392,18.86,238.953,-74.402,0
0.257,0.56,2.288,46.692,290.344,-79.712,0
0.394,0.559,2.152,74.036,335.144,-95.093,0
0.43,0.559,1.93,92.834,370.972,-116.638,0
0.524,0.529,1.711,102.783,394.226,-142.395,0
0.589,0.545,1.507,103.394,410.583,-168.518,0
0.616,0.54,1.373,90.942,428.162,-193.909,0
0.618,0.455,1.242,74.036,446.594,-218.14,0
0.63,0.361,1.169,68.97,461.914,-239.929,0
0.668,0.315,1.073,76.111,473.022,-258.301,0
0.704,0.394,0.959,82.764,490.173,-274.475,0
0.589,0.478,0.857,73.242,507.324,-291.443,0
0.492,0.43,0.745,51.086,518.677,-306.396,0
0.394,0.398,0.648,25.879,521.423,-319.824,0
0.116,0.388,0.576,-1.77,510.803,-331.238,0
-0.12,0.215,0.505,-25.818,483.154,-337.646,0
-0.402,0.127,0.457,-37.354,431.213,-332.153,0
-0.786,-0.024,0.399,-39.917,347.656,-315.186,0
-0.905,-0.281,0.263,-36.804,230.652,-280.334,0
-0.792,-0.401,0.187,-22.278,116.821,-224.548,0
-0.653,-0.536,0.31,-0.488,43.091,-143.494,0
-0.432,-0.587,0.409,28.198,5.493,-53.833,0
-0.247,-0.379,0.219,56.458,1.038,22.766,0
-0.33,-0.437,0.084,62.5,14.038,95.52,0
-0.215,-0.641,0.157,65.918,30.945,125.732,0
-0.078,-0.196,0.083,64.941,55.481,93.75,0
0.101,-0.054,-0.005,52.673,85.205,123.596,0
0.045,-0.301,-0.076,35.95,114.197,155.64,0
0.104,-0.126,-0.154,36.194,117.981,136.902,0
0.178,0.051,-0.211,33.203,122.253,106.445,0
0.26,0.13,-0.195,14.954,127.502,84.29,0
0.38,0.202,-0.178,-1.099,121.155,77.087,0
0.598,0.355,-0.173,-13.977,101.99,78.003,0
0.874,0.349,-0.09,-25.818,68.848,85.449,0
1.226,0.422,0.011,-19.043,19.714,97.9,0
1.647,0.555,0.056,-0.061,-24.292,112.305,0
1.991,0.598,0.215,12.451,-31.799,117.31,0
2.117,0.76,0.233,27.71,-31.555,120.483,1
2.169,0.832,0.196,39.307,-20.081,113.037,1
2.102,0.707,0.194,39.185,-7.08,86.731,1
1.876,0.783,0.142,39.795,2.319,41.077,1
1.675,0.593,0.106,32.104,8.972,5.31,1
1.441,0.495,0.054,16.663,11.292,-17.761,1
1.186,0.283,0.057,3.235,11.292,-23.315,1
1.019,0.122,0.065,-3.052,4.211,-30.273,1
0.892,0.008,0.059,-1.526,-5.066,-32.654,1
0.916,-0.125,0.027,3.113,-11.719,-34.668,1
0.759,-0.155,0.068,8.972,-10.193,-21.79,1
0.842,-0.17,0.023,6.836,-13.794,-32.043,1
0.742,-0.061,0.021,17.761,-8.789,-25.879,1
0.693,-0.09,0.037,12.817,-6.775,2.319,1
0.705,-0.182,0.035,7.812,-8.118,17.639,1
0.687,-0.059,0.034,10.498,-11.169,21.423,1
0.777,-0.17,0.049,6.287,-10.071,20.203,1
0.817,-0.069,0.026,3.784,-8.423,0,1
-0.142,1.546,-1.531,414.917,-6.836,-27.1,0
-0.107,1.724,-1.79,373.108,-71.472,-45.654,0
0.108,1.786,-2.061,319.885,-135.681,-63.782,0
0.36,1.796,-2.245,270.935,-179.81,-79.346,0
0.497,1.807,-2.286,241.699,-203.918,-89.905,0
0.558,1.808,-2.196,226.929,-217.957,-97.534,0
0.626,1.864,-2.092,214.905,-231.14,-106.445,0
0.613,1.683,-1.845,195.068,-250.916,-125.977,0
0.587,1.746,-1.713,177.917,-266.907,-136.475,0
0.528,1.441,-1.598,149.597,-293.396,-125.366,0
0.645,1.326,-1.475,131.592,-319.885,-159.18,0
0.633,1.396,-1.295,131.042,-338.562,-169.861,0
0.561,1.283,-1.153,121.582,-351.501,-161.804,0
0.547,1.147,-1.07,104.126,-359.985,-180.359,0
0.552,1.02,-0.976,93.75,-369.08,-206.299,0
0.565,0.924,-0.904,91.98,-378.296,-233.887,0
0.599,0.9,-0.859,96.924,-386.108,-253.052,0
0.62,0.843,-0.785,100.22,-389.526,-261.719,0
0.625,0.774,-0.72,97.168,-384.277,-277.1,0
0.64,0.745,-0.673,89.661,-369.202,-293.213,0
0.634,0.737,-0.624,73.425,-348.755,-308.228,0
0.541,0.662,-0.581,49.316,-323.669,-321.716,0
0.459,0.645,-0.546,25.513,-302.551,-327.576,0
0.363,0.583,-0.445,2.136,-291.565,-332.214,0
0.44,0.418,-0.369,-13.245,-295.044,-346.008,0
0.254,0.423,-0.272,-23.254,-297.363,-352.661,0
0.095,0.38,-0.194,-37.109,-292.725,-351.562,0
0.017,0.192,-0.156,-58.105,-304.932,-358.948,0
-0.059,0.067,-0.134,-65.369,-327.209,-371.338,0
-0.123,0.011,-0.141,-63.599,-350.464,-378.54,0
-0.173,-0.048,-0.151,-63.232,-370.667,-372.742,0
-0.24,-0.105,-0.132,-64.941,-386.536,-362.305,0
-0.261,-0.151,-0.151,-64.209,-401.733,-352.539,0
-0.247,-0.177,-0.16,-62.134,-419.922,-344.727,0
-0.214,-0.163,-0.121,-58.96,-436.646,-338.379,0
-0.193,-0.049,-0.025,-59.692,-447.876,-335.022,0
-0.246,-0.012,0.085,-72.266,-452.82,-333.191,0
-0.309,-0.012,0.157,-85.144,-459.717,-325.623,0
-0.248,0.06,0.162,-95.886,-469.299,-311.34,0
-0.189,0.13,0.147,-115.967,-474.182,-297.546,0
-0.151,0.192,0.101,-146.423,-470.032,-286.926,0
-0.154,0.205,0.146,-181.885,-457.275,-277.954,0
-0.17,0.176,0.276,-218.018,-433.35,-270.935,0
-0.173,0.116,0.483,-244.873,-396.118,-263.062,0
-0.258,0.121,0.655,-254.7,-344.543,-250.854,0
-0.362,0.176,0.745,-257.263,-293.396,-231.567,0
-0.444,0.201,0.772,-259.155,-263.855,-206.177,0
-0.532,0.254,0.79,-260.681,-258.362,-178.955,0
-0.57,0.408,0.967,-263.367,-267.822,-156.799,0
-0.539,0.51,1.422,-282.776,-272.949,-143.921,0
-0.482,0.558,1.891,-307.617,-243.042,-132.324,0
-0.335,0.397,2.022,-311.768,-191.833,-112.122,0
-0.238,0.294,2.149,-278.748,-154.785,-97.839,0
-0.303,0.414,2.357,-213.745,-107.788,-75.745,0
-0.319,0.598,2.507,-148.682,-53.101,-60.059,0
-0.323,0.732,2.536,-101.074,-4.517,-55.298,0
-0.438,0.881,2.534,-70.862,45.166,-58.105,0
-0.502,0.955,2.541,-51.758,87.341,-59.875,0
-0.29,0.844,2.499,-40.222,115.173,-58.838,0
-0.173,0.669,2.435,-25.818,150.391,-61.707,0
-0.045,0.645,2.406,-5.066,171.692,-65.918,0
0.233,0.47,2.289,17.334,192.444,-73.303,0
0.338,0.451,2.126,47.241,237.244,-86.914,0
0.448,0.481,2.014,75.134,280.273,-101.99,0
0.621,0.525,1.903,90.088,313.11,-126.404,0
0.685,0.563,1.726,89.05,349.487,-146.484,0
0.703,0.48,1.574,76.416,399.536,-165.588,0
0.704,0.4,1.444,65.796,439.758,-186.584,0
0.745,0.351,1.3,65.491,465.637,-207.214,0
0.713,0.323,1.191,69.092,492.798,-225.403,0
0.614,0.415,1.089,68.054,519.287,-247.314,0
0.501,0.464,0.989,56.03,536.316,-262.634,0
0.403,0.441,0.877,31.982,540.405,-269.287,0
0.333,0.342,0.754,4.456,532.837,-270.142,0
0.268,0.271,0.643,-20.813,515.747,-271.912,0
0.236,0.259,0.56,-40.527,495.422,-276.184,0
0.132,0.236,0.536,-59.753,476.624,-283.508,0
-0.049,0.215,0.561,-76.965,455.078,-296.448,0
-0.157,0.133,0.574,-84.717,413.696,-304.443,0
-0.263,-0.034,0.512,-79.956,355.408,-304.81,0
-0.321,-0.144,0.391,-61.89,288.513,-288.513,0
-0.289,-0.268,0.292,-44.128,231.445,-256.226,0
-0.295,-0.373,0.219,-28.503,193.298,-215.637,0
-0.352,-0.33,0.198,-9.46,163.635,-169.067,0
-0.426,-0.217,0.272,-1.221,141.785,-126.831,0
-0.438,-0.324,0.39,2.502,119.263,-76.904,0
-0.409,-0.242,0.334,10.62,98.45,-26.672,0
-0.404,-0.316,0.198,9.216,75.562,11.597,0
-0.322,-0.77,0.15,4.944,71.228,-19.775,0
0.097,-0.3,0.127,55.359,89.844,-12.695,0
-0.233,-0.232,0.092,83.618,93.018,67.322,1
-0.206,-0.369,0.04,64.636,95.154,80.994,1
-0.152,-0.357,0.011,65.063,98.816,98.572,1
-0.139,-0.324,-0.064,70.435,101.685,118.286,1
-0.025,-0.286,-0.167,75.562,102.661,136.658,1
0.063,-0.142,-0.306,78.186,98.755,149.658,1
0.294,0.058,-0.396,77.454,98.206,164.734,1
0.563,0.119,-0.503,65.918,90.271,182.129,1
0.876,0.205,-0.55,55.664,67.871,183.044,1
1.286,0.573,-0.623,46.753,14.954,172.424,1
1.717,0.694,-0.592,30.762,-16.541,189.575,1
2.062,0.505,-0.477,13.55,-36.621,192.688,1
2.263,0.659,-0.404,24.597,-49.438,169.373,1
2.324,0.728,-0.33,43.518,-46.814,145.508,1
2.349,0.844,-0.287,49.5,-39.734,124.817,1
2.245,0.708,-0.283,42.786,-29.419,101.135,1
2.065,0.676,-0.24,37.048,-20.203,71.106,1
1.826,0.527,-0.212,31.738,-12.817,37.292,1
1.598,0.375,-0.148,24.048,-10.803,0,1
1.425,0.359,-0.127,16.541,-17.273,-21.179,1
1.229,0.195,-0.115,10.803,-20.752,-10.803,1
1.117,0.113,-0.115,5.737,-29.785,-8.85,1
1.001,0.026,-0.094,7.141,-40.527,-5.432,1
0.992,-0.003,-0.09,9.277,-52.551,-5.066,1
0.975,-0.073,-0.097,12.512,-58.289,-1.526,1
0.995,0.111,-0.059,16.235,-54.688,6.104,1
0.933,-0.211,-0.022,14.893,-48.706,9.521,1
0.962,0.168,-0.039,19.836,-41.443,-9.216,1
0.789,0.109,-0.02,25.452,-30.945,32.715,1
0.127,1.333,-1.701,345.703,-4.517,1.77,0
-0.022,1.39,-1.772,311.646,-13.184,-15.869,0
-0.11,1.437,-1.836,289.307,-45.227,-27.1,0
-0.016,1.475,-1.94,278.137,-98.267,-38.757,0
0.13,1.513,-2.032,280.64,-157.349,-54.688,0
0.273,1.623,-2.044,293.152,-214.539,-71.106,0
0.435,1.727,-1.986,294.983,-267.456,-91.309,0
0.599,1.8,-1.894,278.198,-310.242,-108.643,0
0.785,1.755,-1.796,241.089,-337.341,-122.681,0
0.876,1.659,-1.686,195.068,-345.52,-138.245,0
0.792,1.401,-1.505,148.193,-340.576,-160.4,0
0.873,1.443,-1.399,111.572,-331.909,-189.819,0
0.6,1.273,-1.177,84.045,-318.054,-183.655,0
0.527,0.984,-1.022,50.659,-321.106,-209.29,0
0.531,1.07,-0.898,40.039,-328.43,-234.436,0
0.359,0.992,-0.76,44.189,-350.22,-198.181,0
0.373,0.678,-0.668,45.715,-372.253,-186.035,0
0.394,0.52,-0.626,51.697,-388.062,-228.943,0
0.456,0.618,-0.592,68.359,-397.705,-270.386,0
0.482,0.63,-0.551,76.66,-396.851,-274.109,0
0.519,0.577,-0.512,73.181,-383.423,-275.513,0
0.441,0.625,-0.631,65.43,-366.394,-282.41,0
0.509,0.445,-0.412,47.852,-359.985,-296.448,0
0.401,0.461,-0.401,36.194,-343.567,-306.152,0
0.328,0.446,-0.395,20.264,-331.238,-314.758,0
0.283,0.283,-0.316,-0.549,-333.252,-319.641,0
0.207,0.287,-0.274,-12.939,-340.576,-328.247,0
0.125,0.235,-0.242,-26.367,-354.004,-329.895,0
0.119,0.103,-0.236,-44.312,-370.667,-330.2,0
0.092,0.04,-0.203,-55.481,-382.019,-331.299,0
-0.01,0.023,-0.148,-60.974,-387.939,-330.078,0
-0.096,-0.018,-0.067,-66.589,-397.217,-328.918,0
-0.076,-0.097,-0.013,-69.519,-412.598,-327.454,0
-0.058,-0.105,0.049,-60.913,-428.467,-324.707,0
-0.087,-0.012,0.139,-54.749,-443.787,-320.923,0
-0.064,0.03,0.207,-65.369,-455.139,-316.04,0
-0.041,0.019,0.214,-85.388,-461.548,-311.218,0
-0.063,0.011,0.207,-105.896,-464.6,-304.199,0
-0.094,0.007,0.205,-125.916,-470.52,-295.227,0
-0.065,0.006,0.316,-145.203,-477.112,-287.659,0
0.002,-0.012,0.484,-164.734,-465.515,-284.729,0
-0.074,-0.001,0.585,-176.147,-421.692,-279.175,0
-0.192,-0.001,0.616,-182.373,-371.826,-261.597,0
-0.195,-0.003,0.626,-182.373,-334.473,-232.91,0
-0.212,0.055,0.596,-176.331,-307.8,-200.806,0
-0.249,0.165,0.552,-174.255,-290.405,-171.265,0
-0.328,0.283,0.526,-186.768,-284.79,-153.076,0
-0.453,0.42,0.557,-216.675,-292.419,-150.085,0
-0.516,0.523,0.758,-259.949,-309.326,-158.264,0
-0.573,0.58,1.15,-309.692,-312.012,-168.701,0
-0.579,0.428,1.452,-348.999,-288.513,-165.161,0
-0.409,0.397,1.553,-347.473,-259.399,-146.423,0
-0.3,0.45,1.608,-313.843,-233.459,-121.887,0
-0.305,0.573,1.805,-271.179,-201.294,-93.506,0
-0.299,0.754,2.044,-237.671,-157.471,-62.744,0
-0.385,0.76,2.15,-217.651,-98.694,-41.321,0
-0.403,0.854,2.203,-188.171,-47.546,-29.297,0
-0.391,0.959,2.182,-145.691,-7.812,-26.855,0
-0.389,1.112,2.268,-99.548,36.255,-39.978,0
-0.344,1.165,2.325,-66.589,68.542,-52.368,0
-0.117,0.961,2.315,-41.26,111.938,-67.261,0
-0.06,0.997,2.303,-13,157.654,-83.069,0
0.111,0.931,2.21,6.714,196.289,-85.449,0
0.257,0.847,2.112,23.682,247.62,-91.309,0
0.216,0.713,2.023,43.03,292.542,-106.934,0
0.339,0.64,1.932,68.42,323.059,-131.042,0
0.454,0.645,1.783,93.018,344.116,-148.071,0
0.497,0.63,1.629,108.276,364.014,-161.56,0
0.599,0.626,1.501,117.554,379.883,-175.659,0
0.681,0.608,1.418,119.446,397.217,-192.566,0
0.641,0.503,1.299,113.953,415.405,-217.651,0
0.661,0.506,1.168,111.572,429.749,-244.446,0
0.625,0.578,1.031,108.276,436.462,-259.094,0
0.54,0.557,0.897,93.14,438.477,-270.325,0
0.464,0.459,0.801,73.547,436.584,-279.602,0
0.399,0.381,0.712,58.655,433.228,-281.433,0
0.324,0.361,0.64,46.814,425.049,-279.724,0
0.171,0.326,0.595,30.945,412.292,-277.039,0
0.091,0.255,0.533,13.672,387.451,-276.672,0
0.08,0.152,0.424,1.953,356.018,-275.696,0
-0.062,0.074,0.35,-4.211,323.792,-267.029,0
-0.086,-0.048,0.33,-4.089,282.471,-256.897,0
-0.039,-0.069,0.283,5.737,232.849,-246.338,0
0.045,-0.089,0.366,16.541,183.594,-229.248,0
0.124,-0.207,0.365,25.696,158.508,-217.773,0
0.012,-0.163,0.222,39.673,151.001,-194.336,0
-0.018,-0.226,0.151,46.753,140.747,-163.757,0
-0.02,-0.282,0.162,49.316,146.423,-128.845,0
-0.079,-0.277,0.211,50.72,152.893,-100.952,0
-0.029,-0.435,0.159,53.284,148.376,-80.444,0
-0.01,-0.352,0.122,59.998,151.367,-85.632,0
-0.15,-0.192,0.06,71.228,139.099,-53.955,0
-0.193,-0.256,0.018,67.322,121.643,-14.465,0
-0.128,-0.278,-0.022,64.27,104.797,8.484,0
-0.09,-0.326,-0.061,65.186,91.064,50.964,0
0.007,-0.277,-0.079,65.125,86.914,89.6,0
0.092,-0.214,-0.11,63.843,83.252,122.925,0
0.279,-0.213,-0.158,64.209,83.374,152.466,0
0.444,-0.119,-0.179,65.43,93.628,174.561,0
0.615,-0.095,-0.243,67.688,92.957,169.128,0
0.944,0.394,-0.353,70.984,69.946,147.095,0
1.238,0.593,-0.449,49.194,47.546,140.747,0
1.537,0.636,-0.448,12.39,29.907,133.545,0
1.675,0.557,-0.412,-12.146,21.179,120.605,0
1.817,0.341,-0.318,-18.982,13.977,96.375,1
1.917,0.413,-0.243,-13.184,3.967,53.833,1
1.888,0.396,-0.214,-0.488,2.869,24.414,1
1.823,0.426,-0.203,12.329,-0.488,13.977,1
1.647,0.219,-0.191,24.048,-5.798,19.714,1
1.567,0.232,-0.215,27.771,-18.066,-3.235,1
1.421,0.196,-0.224,32.104,-28.442,-10.803,1
1.189,0.043,-0.218,27.1,-33.508,-13.794,1
1.23,0.21,-0.238,20.569,-39.001,-31.555,1
1.015,0.086,-0.099,17.883,-29.602,2.258,1
0.96,-0.309,-0.103,-3.174,-31.86,-1.038,1
0.94,-0.047,-0.12,1.77,-33.386,-26.245,1
0.96,-0.011,-0.127,5.493,-35.828,0.732,1
0.868,-0.265,-0.102,-5.676,-22.095,38.696,1
0.909,-0.348,-0.076,-14.221,-15.808,28.503,1
-0.195,1.385,-1.326,339.661,-128.723,-72.571,0
0.004,1.397,-1.563,305.298,-213.928,-85.938,0
0.251,1.332,-1.71,282.288,-288.635,-103.638,0
0.509,1.349,-1.788,282.227,-346.68,-123.84,0
0.781,1.516,-1.809,295.654,-388.672,-145.142,0
0.97,1.66,-1.764,295.654,-418.396,-165.649,0
1.168,1.62,-1.655,277.405,-433.777,-184.631,0
1.342,1.684,-1.571,253.845,-433.838,-210.266,0
1.33,1.725,-1.457,214.905,-426.331,-228.333,0
1.324,1.627,-1.339,165.161,-418.335,-233.948,0
1.321,1.481,-1.215,119.385,-414.307,-241.943,0
1.367,1.344,-1.071,86.609,-413.818,-247.681,0
1.129,1.053,-0.947,58.411,-410.645,-258.423,0
1.114,1.058,-0.799,37.842,-405.823,-291.321,0
0.949,1.009,-0.678,22.766,-412.537,-286.865,0
0.892,0.872,-0.596,5.798,-425.598,-278.137,0
0.795,0.56,-0.486,-0.854,-433.899,-268.433,0
0.785,0.391,-0.408,-3.845,-435.059,-320.19,0
0.754,0.532,-0.363,6.47,-425.903,-360.901,0
0.615,0.507,-0.304,0.305,-413.635,-351.99,0
0.524,0.334,-0.276,-19.348,-399.048,-346.924,0
0.421,0.206,-0.235,-33.447,-387.817,-348.022,0
0.33,0.218,-0.197,-38.818,-380.554,-352.295,0
0.214,0.286,-0.172,-51.086,-375,-356.506,0
0.083,0.263,-0.121,-79.041,-373.962,-361.877,0
-0.009,0.16,-0.069,-105.957,-378.845,-363.831,0
-0.105,0.09,-0.023,-119.08,-386.597,-363.159,0
-0.171,0.081,0.031,-120.85,-398.132,-353.638,0
-0.205,0.063,0.133,-122.375,-410.034,-335.144,0
-0.238,-0.018,0.23,-123.596,-417.053,-313.904,0
-0.278,-0.175,0.3,-116.333,-422.241,-293.091,0
-0.18,-0.277,0.344,-91.553,-430.908,-271.973,0
-0.168,-0.165,0.324,-58.167,-434.875,-254.272,0
-0.107,-0.107,0.318,-39.368,-432.678,-235.596,0
-0.118,-0.088,0.292,-34.424,-432.068,-229.736,0
-0.151,-0.024,0.263,-36.316,-429.138,-226.746,0
-0.155,0.079,0.229,-54.993,-432.617,-226.685,0
-0.082,0.143,0.257,-86.426,-414.49,-231.995,0
-0.189,0.233,0.393,-123.962,-370.178,-241.333,0
-0.332,0.215,0.526,-160.339,-319.275,-242.676,0
-0.395,0.13,0.563,-185.791,-267.639,-232.3,0
-0.403,0.049,0.607,-193.604,-220.581,-208.069,0
-0.463,0.018,0.689,-179.749,-180.359,-180.054,0
-0.585,0.141,0.751,-158.447,-154.236,-151.55,0
-0.632,0.281,0.792,-156.555,-146.423,-126.648,0
-0.656,0.344,0.834,-181.763,-152.71,-111.694,0
-0.705,0.341,0.964,-221.252,-164.612,-105.408,0
-0.67,0.271,1.129,-258.606,-172.668,-101.074,0
-0.438,0.168,1.281,-276.184,-170.959,-93.018,0
-0.258,0.091,1.345,-263.733,-157.104,-85.083,0
-0.152,0.21,1.429,-230.53,-136.902,-77.087,0
-0.067,0.43,1.612,-200.439,-105.53,-71.167,0
-0.085,0.68,1.902,-187.378,-51.941,-73.853,0
-0.158,0.889,2.227,-192.627,14.038,-79.651,0
-0.193,0.916,2.466,-195.557,78.43,-80.933,0
-0.341,0.832,2.679,-179.443,124.39,-82.52,0
-0.345,0.74,2.795,-135.071,135.925,-80.566,0
-0.22,0.777,2.769,-69.946,123.657,-72.266,0
-0.11,0.822,2.649,-6.897,121.765,-60.12,0
0.11,0.819,2.484,37.415,132.812,-53.162,0
0.343,0.772,2.34,63.538,159.119,-53.711,0
0.468,0.769,2.206,77.393,208.496,-62.012,0
0.505,0.79,2.147,82.458,272.705,-79.651,0
0.481,0.761,2.067,77.637,332.581,-105.164,0
0.52,0.63,1.949,73.425,371.155,-132.263,0
0.514,0.51,1.813,76.294,392.578,-158.813,0
0.589,0.442,1.671,90.393,407.898,-179.687,0
0.668,0.455,1.555,110.046,422.241,-200.5,0
0.708,0.521,1.441,125.122,438.171,-220.581,0
0.627,0.542,1.349,125.916,453.674,-238.708,0
0.497,0.544,1.227,116.76,468.811,-257.446,0
0.411,0.569,1.072,106.079,474.243,-271.973,0
0.317,0.542,0.919,89.844,464.355,-278.564,0
0.233,0.438,0.786,68.481,448.486,-280.334,0
0.18,0.325,0.683,51.086,427.673,-278.503,0
0.066,0.291,0.599,39.368,404.236,-278.87,0
0.14,0.235,0.525,28.137,380.676,-275.879,0
0.073,0.119,0.492,16.418,362.549,-272.339,0
-0.038,0.06,0.508,15.686,351.196,-266.174,0
-0.125,0.066,0.496,21.973,334.473,-252.869,0
-0.261,0,0.513,23.865,312.683,-233.582,0
-0.368,-0.176,0.543,28.87,293.03,-206.665,0
-0.669,-0.283,0.387,51.331,266.846,-171.387,0
-0.893,-0.228,0.267,75.867,207.092,-124.573,0
-0.901,-0.328,0.245,79.773,144.958,-62.134,0
-0.756,-0.864,0.204,78.613,105.713,-20.264,0
-0.464,-0.435,0.187,83.679,102.112,-41.016,0
-0.583,-0.371,0.162,124.268,105.408,81.787,0
-0.562,-0.852,0.137,116.821,100.708,135.132,0
-0.608,-0.459,0.067,128.662,108.582,112,0
-0.583,0.046,-0.121,135.315,103.882,138.245,0
-0.438,-0.173,-0.29,104.004,85.815,197.083,0
-0.191,0.025,-0.408,84.045,82.153,213.135,0
0.188,0.012,-0.438,62.5,57.739,222.168,0
0.691,0.251,-0.455,38.818,40.588,189.209,0
1.011,0.48,-0.422,22.095,39.978,168.335,1
1.441,0.491,-0.432,3.235,50.781,123.352,1
1.669,0.972,-0.335,-1.892,69.336,92.896,1
1.794,0.713,-0.308,-8.484,62.439,119.263,1
1.866,0.984,-0.269,-1.343,41.992,120.483,1
2.122,0.62,-0.234,18.311,5.493,117.554,1
2.219,0.824,-0.22,38.452,-19.348,36.011,1
2.163,0.906,-0.241,51.697,-33.875,-7.996,1
1.986,0.677,-0.234,45.654,-33.508,-7.812,1
1.749,0.512,-0.229,33.691,-27.771,-24.902,1
1.514,0.395,-0.247,23.315,-23.804,-39.307,1
1.291,0.156,-0.227,9.583,-21.912,-32.288,1
1.118,0.059,-0.206,2.808,-26.001,-33.875,1
1.062,-0.068,-0.212,1.343,-31.738,-29.419,1
0.918,-0.248,-0.148,4.395,-30.151,-11.658,1
0.958,-0.126,-0.168,3.357,-30.823,-18.127,1
0.866,-0.15,-0.142,6.531,-23.376,-11.169,1
0.881,-0.185,-0.119,1.343,-19.714,-15.869,1
0.848,-0.117,-0.125,1.221,-15.259,-15.198,1
0.801,-0.155,-0.104,-1.709,-9.216,-13.489,1
0.772,-0.156,-0.091,-2.014,-4.028,-9.705,1
0.742,-0.181,-0.078,-2.502,-2.197,-11.108,1
0.746,-0.177,-0.072,-0.366,-3.784,-17.029,1
0.786,-0.133,-0.085,3.418,-5.859,-19.043,1
-0.03,1.418,-1.337,328.857,-151.367,-44.25,0
0.191,1.419,-1.549,293.823,-210.937,-61.951,0
0.337,1.422,-1.731,268.921,-251.282,-84.839,0
0.46,1.455,-1.812,259.705,-288.452,-106.812,0
0.619,1.541,-1.795,262.817,-321.655,-122.314,0
0.76,1.63,-1.726,262.878,-344.604,-140.137,0
0.928,1.699,-1.646,259.46,-356.201,-159.973,0
1.1,1.786,-1.58,250.854,-358.826,-179.871,0
1.172,1.856,-1.53,228.088,-356.445,-198.242,0
1.215,1.839,-1.466,195.129,-357.239,-191.345,0
1.31,1.67,-1.383,156.616,-361.877,-181.458,0
1.268,1.547,-1.252,121.948,-364.075,-192.139,0
1.217,1.41,-1.096,92.773,-361.389,-210.754,0
1.125,1.292,-0.936,65.674,-367.249,-234.741,0
1.039,1.114,-0.814,41.321,-378.235,-262.268,0
0.982,0.894,-0.709,30.396,-391.602,-286.499,0
0.99,0.997,-0.596,28.198,-401.123,-306.58,0
0.914,0.68,-0.485,27.466,-399.963,-312.866,0
1.008,0.762,-0.505,32.959,-398.926,-342.407,0
0.795,0.735,-0.405,34.607,-381.897,-333.435,0
0.78,0.636,-0.398,16.846,-377.014,-342.651,0
0.791,0.57,-0.357,1.038,-364.685,-349.182,0
0.693,0.527,-0.333,-13.306,-343.567,-350.708,0
0.519,0.5,-0.281,-31.189,-321.472,-350.22,0
0.407,0.431,-0.224,-54.504,-308.655,-352.539,0
0.296,0.326,-0.174,-78.369,-304.382,-356.079,0
0.186,0.212,-0.104,-91.614,-304.26,-356.995,0
0.059,0.128,-0.034,-98.389,-308.472,-364.014,0
-0.065,0.064,0.016,-101.379,-319.153,-369.568,0
-0.166,-0.001,0.063,-101.379,-336.67,-367.126,0
-0.238,-0.061,0.074,-99.304,-357.117,-356.445,0
-0.274,-0.103,0.084,-94.727,-375.793,-338.623,0
-0.256,-0.163,0.136,-88.257,-393.738,-320.862,0
-0.219,-0.214,0.188,-78.43,-410.767,-308.838,0
-0.193,-0.21,0.208,-64.27,-417.847,-297.852,0
-0.186,-0.164,0.216,-51.636,-415.833,-283.875,0
-0.144,-0.097,0.224,-46.936,-411.56,-268.616,0
-0.091,-0.013,0.208,-49.133,-403.87,-254.333,0
-0.073,0.053,0.157,-61.157,-392.456,-244.324,0
-0.095,0.128,0.096,-87.036,-378.296,-240.112,0
-0.169,0.2,0.059,-125.122,-359.741,-240.906,0
-0.292,0.243,0.089,-169.922,-340.027,-246.338,0
-0.387,0.281,0.187,-215.149,-322.021,-254.272,0
-0.503,0.315,0.291,-253.54,-301.27,-261.536,0
-0.619,0.32,0.435,-281.738,-278.992,-260.559,0
-0.701,0.305,0.581,-299.5,-260.315,-249.146,0
-0.743,0.312,0.691,-304.932,-248.84,-231.812,0
-0.676,0.394,0.857,-302.979,-244.69,-213.318,0
-0.646,0.463,1.11,-306.396,-233.032,-197.937,0
-0.586,0.449,1.39,-318.054,-200.684,-179.932,0
-0.417,0.382,1.561,-324.646,-155.884,-155.09,0
-0.298,0.346,1.726,-313.171,-108.887,-130.798,0
-0.286,0.478,1.999,-283.997,-57.8,-109.619,0
-0.284,0.602,2.275,-242.615,-11.414,-95.215,0
-0.236,0.791,2.456,-197.388,26.794,-94.788,0
-0.318,1.038,2.58,-158.264,67.383,-102.295,0
-0.251,1.025,2.729,-125.977,120.972,-108.154,0
-0.244,0.999,2.836,-92.224,157.837,-128.357,0
-0.175,1.012,2.821,-57.617,184.265,-131.592,0
-0.048,0.86,2.753,-27.893,207.886,-112.976,0
0.088,0.626,2.644,3.113,219.177,-103.088,0
0.251,0.458,2.506,52.551,227.356,-100.22,0
0.459,0.429,2.336,113.403,239.563,-105.469,0
0.607,0.538,2.176,166.687,270.142,-113.892,0
0.672,0.693,2.017,192.627,309.265,-132.08,0
0.678,0.745,1.843,189.331,344.543,-153.748,0
0.759,0.728,1.622,173.34,377.38,-178.162,0
0.681,0.636,1.441,153.503,407.959,-206.421,0
0.642,0.598,1.272,133.667,433.716,-233.521,0
0.588,0.534,1.123,115.234,448.12,-249.39,0
0.518,0.466,1.011,99.304,457.031,-254.089,0
0.49,0.398,0.917,87.524,460.388,-253.357,0
0.422,0.349,0.834,77.881,456.116,-254.395,0
0.298,0.324,0.772,66.833,445.068,-261.108,0
0.148,0.313,0.698,57.983,427.612,-263.611,0
0.027,0.315,0.609,50.781,400.818,-265.381,0
-0.1,0.264,0.527,42.053,369.324,-268.433,0
-0.13,0.178,0.489,33.997,330.017,-270.63,0
-0.163,0.095,0.396,30.762,282.166,-265.32,0
-0.141,0.065,0.268,34.424,234.924,-247.253,0
-0.194,0.002,0.216,36.011,198.425,-218.14,0
-0.297,-0.109,0.223,33.936,172.058,-183.96,0
-0.39,-0.168,0.361,36.438,140.686,-145.935,0
-0.403,-0.218,0.474,46.021,111.938,-101.44,0
-0.443,-0.305,0.304,66.467,90.881,-52.49,0
-0.405,-0.263,0.144,81.726,68.176,-27.893,0
-0.025,-0.265,0.119,93.994,69.519,-5.859,0
-0.17,-0.232,0.158,102.783,72.693,21.851,0
-0.209,-0.191,0.067,97.9,69.519,29.114,0
-0.14,-0.248,-0.047,94.666,82.581,39.124,1
-0.244,-0.269,-0.14,88.989,88.379,38.574,1
-0.186,-0.081,-0.048,82.092,113.037,27.161,1
-0.287,-0.042,-0.111,60.303,103.149,62.988,1
-0.235,-0.351,-0.162,29.053,110.474,105.835,1
-0.21,-0.235,-0.244,16.235,123.657,118.713,1
0.013,-0.107,-0.24,12.207,124.146,158.447,1
0.203,-0.344,-0.294,2.869,101.318,182.495,1
0.611,-0.008,-0.339,10.742,71.35,177.185,1
0.926,0.076,-0.355,11.719,44.25,186.035,1
1.354,0.069,-0.368,12.207,28.015,174.316,1
1.6,0.324,-0.295,24.78,24.536,153.137,1
1.859,0.48,-0.266,37.17,9.094,143.188,1
2.115,0.447,-0.248,42.847,-1.282,122.62,1
2.223,0.653,-0.246,50.659,-1.953,88.013,1
2.233,0.698,-0.239,47.424,5.981,67.749,1
2.09,0.565,-0.21,29.053,15.564,48.096,1
1.943,0.452,-0.204,14.16,19.104,20.264,1
1.766,0.363,-0.19,6.104,21.24,0.305,1
1.591,0.118,-0.186,-1.892,17.7,-8.789,1
1.227,0.063,-0.162,-5.859,15.564,-2.258,1
1.264,-0.265,-0.1,-12.39,-0.183,-29.358,1
1.17,0.12,-0.154,6.104,-13.916,-35.767,1
0.943,-0.056,-0.105,4.517,-13.977,15.137,1
0.982,-0.206,-0.083,-8.728,-24.78,26.428,1
0.972,-0.127,-0.072,-0.427,-27.161,33.508,1
1.004,-0.204,-0.048,-1.404,-23.926,22.156,1
0.994,-0.074,-0.049,3.662,-13,9.766,1
0.967,-0.095,-0.028,1.953,1.404,3.052,1
0.898,-0.068,-0.023,-1.038,11.23,-4.028,1
0.126,1.633,-1.633,414.062,-79.285,1.221,0
0.282,1.685,-1.919,356.14,-139.771,-22.339,0
0.411,1.555,-2.054,298.34,-194.397,-44.128,0
0.536,1.438,-2.056,263.123,-243.713,-64.087,0
0.68,1.416,-1.995,249.939,-288.574,-84.656,0
0.81,1.43,-1.904,241.089,-327.759,-105.164,0
0.926,1.43,-1.799,234.863,-356.384,-121.277,0
1.05,1.467,-1.682,227.417,-370.789,-130.92,0
1.144,1.494,-1.584,216.492,-370.117,-135.925,0
1.126,1.478,-1.482,199.097,-358.887,-139.709,0
1.088,1.314,-1.368,176.88,-346.13,-149.475,0
1.08,1.36,-1.285,157.41,-340.698,-165.344,0
0.993,1.181,-1.165,136.902,-343.933,-171.082,0
0.92,1.025,-1.052,121.216,-351.624,-198.547,0
0.897,1.114,-0.932,114.014,-368.042,-213.318,0
0.867,1.042,-0.84,101.685,-390.32,-202.454,0
0.818,0.744,-0.765,86.487,-402.588,-213.562,0
0.841,0.635,-0.705,76.172,-404.785,-269.409,0
0.92,0.77,-0.69,72.693,-400.635,-305.908,0
0.787,0.738,-0.65,59.326,-383.85,-296.265,0
0.742,0.626,-0.609,35.706,-358.826,-292.664,0
0.659,0.561,-0.558,14.465,-331.177,-293.152,0
0.528,0.486,-0.477,-6.958,-308.838,-297.302,0
0.463,0.418,-0.404,-24.475,-295.227,-301.025,0
0.344,0.339,-0.333,-40.039,-286.865,-298.523,0
0.289,0.232,-0.275,-60.242,-286.804,-303.04,0
0.118,0.173,-0.2,-78.186,-292.542,-309.509,0
0.055,0.083,-0.135,-91.309,-304.626,-310.486,0
-0.002,0.001,-0.078,-101.868,-316.711,-314.697,0
-0.12,-0.057,-0.002,-111.267,-331.665,-326.477,0
-0.212,-0.12,0.058,-116.577,-353.394,-333.435,0
-0.245,-0.161,0.09,-115.784,-375,-330.139,0
-0.28,-0.137,0.129,-114.624,-399.048,-321.045,0
-0.356,-0.143,0.177,-117.065,-425.537,-307.373,0
-0.364,-0.168,0.245,-119.629,-452.576,-294.556,0
-0.358,-0.167,0.257,-118.896,-484.192,-284.058,0
-0.26,-0.126,0.216,-118.469,-508.606,-274.17,0
-0.138,-0.01,0.215,-124.634,-518.433,-267.7,0
-0.083,0.109,0.24,-142.822,-510.01,-263.794,0
-0.01,0.214,0.275,-171.753,-483.521,-260.742,0
0.051,0.307,0.371,-208.008,-444.275,-257.324,0
0.084,0.306,0.566,-247.62,-386.475,-255.066,0
-0.038,0.27,0.757,-279.114,-303.589,-246.399,0
-0.243,0.24,0.912,-297.546,-218.872,-219.971,0
-0.273,0.144,1.006,-308.533,-159.729,-175.537,0
-0.312,0.07,1.014,-296.082,-136.597,-128.784,0
-0.453,0.097,1.086,-267.151,-149.536,-89.783,0
-0.477,0.322,1.185,-239.319,-188.049,-62.317,0
-0.4,0.598,1.424,-231.873,-228.21,-51.941,0
-0.343,0.72,1.84,-249.634,-239.563,-51.453,0
-0.139,0.682,2.07,-263.977,-214.172,-52.063,0
0.066,0.591,2.159,-249.146,-175.598,-51.27,0
0.038,0.67,2.215,-204.346,-131.104,-51.514,0
0.092,0.845,2.436,-148.01,-64.575,-56.519,0
0.052,0.94,2.569,-105.774,1.892,-64.575,0
-0.007,0.994,2.536,-71.594,69.885,-68.237,0
0.014,0.995,2.476,-38.086,123.047,-67.2,0
0.081,0.953,2.429,-7.996,154.968,-73.059,0
0.173,0.914,2.31,17.822,184.753,-77.393,0
0.302,0.758,2.165,39.551,210.51,-84.534,0
0.453,0.612,2.012,65.002,235.535,-98.694,0
0.56,0.57,1.861,94.055,263.306,-115.356,0
0.702,0.525,1.75,121.582,293.64,-134.827,0
0.763,0.552,1.632,142.7,331.421,-162.964,0
0.809,0.59,1.506,152.527,372.437,-192.932,0
0.864,0.619,1.365,150.635,410.522,-221.863,0
0.901,0.55,1.223,141.785,449.89,-244.69,0
0.766,0.599,1.127,128.967,488.159,-277.832,0
0.557,0.594,0.997,107.422,521.118,-300.049,0
0.441,0.527,0.901,81.238,533.447,-309.692,0
0.328,0.479,0.806,55.847,526.062,-312.439,0
0.235,0.392,0.689,29.785,510.437,-312.805,0
0.099,0.336,0.607,7.751,493.225,-304.382,0
-0.12,0.188,0.553,-13.672,468.018,-292.847,0
-0.399,0.057,0.487,-28.87,421.997,-277.466,0
-0.579,-0.171,0.393,-36.194,341.919,-256.714,0
-0.582,-0.382,0.294,-29.724,235.168,-227.112,0
-0.536,-0.495,0.207,-7.446,138.123,-187.317,0
-0.49,-0.518,0.175,23.743,67.688,-139.893,0
-0.247,-0.479,0.243,55.42,19.226,-91.614,0
-0.161,-0.381,0.352,79.468,4.089,-49.316,0
0.039,-0.327,0.163,98.083,17.395,-13.733,0
0.027,-0.388,-0.032,102.295,48.828,-5.493,0
-0.02,0.072,-0.136,93.506,108.459,8.911,0
-0.084,0.054,-0.141,43.884,155.884,49.683,1
0,-0.345,-0.064,-22.644,184.753,60.669,1
-0.134,-0.514,-0.005,-39.734,190.186,63.416,1
-0.182,-0.425,0.017,-18.311,176.88,65.979,1
-0.081,-0.207,-0.047,2.991,146.423,68.909,1
0.162,-0.384,-0.048,10.071,114.38,74.158,1
0.398,-0.319,-0.053,43.579,82.153,83.74,1
0.621,0.215,-0.127,89.233,43.823,103.394,1
0.972,0.301,-0.169,89.783,12.207,115.417,1
1.283,0.248,-0.156,82.031,-2.808,115.051,1
1.544,0.705,-0.129,76.904,-26.428,95.642,1
1.733,0.921,-0.153,49.805,-48.523,105.53,1
1.986,0.485,-0.059,5.188,-38.086,114.868,1
2.023,0.584,0.012,-4.639,-27.649,95.581,1
1.963,0.556,0.036,1.831,-17.578,89.966,1
1.857,0.378,0.091,-4.395,-4.578,70.374,1
1.647,0.247,0.075,1.465,1.465,41.443,1
1.478,0.154,0.048,14.099,5.371,-2.563,1
1.343,0.146,0.032,26.001,4.822,-33.386,1
1.156,0.11,0.013,25.146,3.601,-47.791,1
1.052,0.042,0.005,22.217,-0.427,-33.081,1
0.959,-0.081,-0.008,15.198,-8.24,-22.034,1
0.93,-0.125,-0.006,13.245,-12.085,-18.005,1
0.961,-0.097,0.004,10.681,-14.709,-13.367,1
0.813,0.043,0.028,7.69,-10.193,4.517,1
0.863,-0.342,0.062,0.183,-6.47,4.639,1
0.993,-0.003,0,11.108,-3.967,-9.888,1
0.807,-0.081,0.036,10.803,10.01,3.967,1
0.861,-0.107,0,3.662,9.46,14.404,1
0.837,-0.139,0.01,6.653,14.16,25.696,1
0.881,-0.16,0.003,5.981,13.428,10.132,1
0.882,-0.113,-0.016,10.925,13.367,-8.24,1
0.913,-0.066,-0.018,13.611,16.113,-13.55,1
0.91,-0.068,-0.026,10.986,19.104,-14.038,1
0.907,-0.125,-0.029,10.315,19.836,-15.381,1
-0.011,1.38,-1.272,382.08,-88.501,-1.709,0
0.135,1.41,-1.479,354.736,-146.24,-35.278,0
0.252,1.457,-1.538,344.177,-200.317,-66.711,0
0.364,1.546,-1.512,348.145,-252.014,-90.759,0
0.594,1.739,-1.429,353.76,-301.941,-115.723,0
0.725,1.793,-1.363,357.666,-343.994,-135.925,0
1.079,2.11,-1.395,353.76,-377.625,-168.274,0
1.378,2.134,-1.469,347.961,-388,-146.423,0
1.514,1.945,-1.464,317.688,-375.366,-174.805,0
1.5,2.128,-1.355,281.555,-357.483,-238.647,0
1.511,2.101,-1.226,235.229,-355.774,-243.652,0
1.507,1.799,-1.142,173.035,-364.38,-237.671,0
1.448,1.538,-1.01,129.639,-373.047,-249.512,0
1.309,1.361,-0.857,107.91,-385.498,-275.513,0
1.262,1.201,-0.751,96.313,-404.297,-306.458,0
1.24,1.109,-0.708,88.44,-422.18,-335.815,0
1.089,0.891,-0.645,80.139,-427.734,-344.788,0
1.166,0.964,-0.614,73.608,-425.964,-357.605,0
0.968,0.876,-0.548,70.313,-416.016,-335.632,0
0.901,0.676,-0.446,57.251,-407.227,-326.294,0
0.902,0.567,-0.432,40.466,-395.325,-349.67,0
0.834,0.504,-0.395,28.015,-370.239,-383.728,0
0.79,0.608,-0.38,14.771,-340.881,-403.137,0
0.496,0.586,-0.293,-12.207,-316.589,-382.629,0
0.389,0.396,-0.219,-48.645,-305.969,-371.643,0
0.277,0.224,-0.149,-73.486,-297.058,-375.366,0
0.121,0.149,-0.095,-85.999,-300.781,-380.371,0
-0.014,0.123,-0.085,-92.896,-314.697,-374.573,0
-0.118,0.043,-0.038,-106.384,-331.543,-361.755,0
-0.144,-0.069,-0.006,-116.577,-346.741,-352.051,0
-0.236,-0.158,0.005,-118.347,-366.699,-348.45,0
-0.306,-0.208,0.042,-109.985,-387.756,-341.553,0
-0.273,-0.241,0.07,-96.436,-413.086,-334.167,0
-0.252,-0.165,0.081,-85.388,-434.692,-330.872,0
-0.204,-0.062,0.021,-87.219,-449.219,-318.542,0
-0.094,-0.007,-0.033,-99.182,-443.176,-305.176,0
-0.024,0.123,-0.082,-117.615,-425.537,-297.729,0
-0.152,0.237,0.044,-150.635,-400.635,-292.48,0
-0.203,0.27,0.189,-190.918,-365.417,-282.166,0
-0.174,0.316,0.231,-228.638,-323.669,-266.846,0
-0.236,0.342,0.269,-261.353,-277.039,-250.366,0
-0.38,0.355,0.392,-287.964,-236.755,-231.995,0
-0.537,0.344,0.552,-307.678,-218.201,-210.693,0
-0.636,0.328,0.819,-321.655,-219.788,-187.378,0
-0.644,0.267,1.135,-327.393,-226.868,-163.269,0
-0.575,0.217,1.442,-321.289,-231.995,-136.169,0
-0.392,0.196,1.673,-302.917,-228.76,-102.6,0
-0.198,0.152,1.854,-270.813,-218.994,-63.538,0
-0.166,0.211,2.043,-221.985,-196.411,-29.175,0
-0.198,0.479,2.172,-164.673,-162.292,-9.521,0
-0.244,0.769,2.255,-120.911,-126.587,-7.629,0
-0.354,0.995,2.284,-94.788,-87.219,-23.01,0
-0.423,1.05,2.438,-81.055,-41.809,-44.861,0
-0.391,1.065,2.566,-65.735,8.423,-64.636,0
-0.34,0.812,2.681,-45.654,67.444,-80.2,0
-0.254,0.639,2.709,-6.897,104.675,-84.534,0
-0.085,0.499,2.607,45.41,128.845,-70.618,0
0.001,0.564,2.454,97.046,150.452,-55.115,0
0.094,0.658,2.231,132.141,169.128,-49.011,0
0.256,0.659,2.015,146.851,192.078,-54.321,0
0.417,0.608,1.883,148.193,221.497,-68.604,0
0.462,0.514,1.805,144.409,262.573,-90.027,0
0.457,0.431,1.744,145.63,301.453,-113.22,0
0.507,0.362,1.613,154.663,329.041,-136.78,0
0.669,0.345,1.484,172.485,342.834,-160.828,0
0.853,0.366,1.315,187.195,365.54,-182.068,0
0.766,0.351,1.187,189.27,409.302,-202.087,0
0.746,0.408,1.058,182.312,463.318,-222.961,0
0.625,0.446,0.984,167.603,505.432,-240.295,0
0.535,0.49,0.911,143.799,530.701,-256.958,0
0.353,0.487,0.814,113.953,542.48,-281.128,0
0.183,0.495,0.727,80.627,536.987,-306.335,0
0.051,0.423,0.656,46.753,517.944,-320.679,0
-0.057,0.313,0.58,16.907,490.173,-326.294,0
-0.046,0.191,0.487,-3.357,459.778,-320.129,0
-0.112,0.161,0.424,-16.174,431.519,-307.556,0
-0.121,0.013,0.404,-25.33,402.832,-296.143,0
-0.202,-0.075,0.391,-26.611,369.507,-288.391,0
-0.354,-0.165,0.413,-22.217,327.881,-284.241,0
-0.443,-0.194,0.382,-11.047,278.381,-281.555,0
-0.571,-0.28,0.329,0.061,223.206,-250.671,0
-0.598,-0.399,0.366,9.705,168.518,-201.05,0
-0.651,-0.567,0.403,25.452,128.845,-146.301,0
-0.702,-0.542,0.235,59.082,94.36,-89.172,0
-0.579,-0.43,0.085,88.501,45.044,-36.255,0
-0.25,-0.698,0.004,89.783,27.466,-26.733,0
-0.224,-0.348,0.002,96.619,38.086,-21.79,0
-0.41,-0.203,-0.01,85.632,35.706,27.039,0
-0.351,-0.304,-0.141,55.481,50.72,65.002,0
-0.249,-0.507,-0.093,40.71,74.524,95.703,1
-0.192,-0.547,-0.096,32.288,82.52,102.783,1
-0.164,-0.559,-0.143,29.602,97.534,110.657,1
-0.103,-0.47,-0.196,29.175,116.333,137.268,1
-0.102,-0.563,-0.197,24.902,128.357,182.007,1
-0.036,-0.631,-0.243,30.212,120.911,224.06,1
0.134,-0.483,-0.321,50.171,92.957,235.352,1
0.433,-0.164,-0.405,69.58,52.734,229.004,1
0.896,-0.022,-0.448,73.303,2.686,223.206,1
1.411,0.202,-0.392,73.364,-40.649,210.449,1
1.893,0.454,-0.372,68.665,-65.491,194.58,1
2.313,0.56,-0.329,63.965,-56.946,182.922,1
2.452,0.623,-0.221,54.26,-23.376,159.18,1
2.429,0.542,-0.196,32.532,-1.526,115.54,1
2.285,0.655,-0.19,20.813,18.127,74.097,1
2.003,0.504,-0.158,8.972,26.123,62.744,1
1.781,0.233,-0.115,-1.343,14.16,49.194,1
1.574,0.218,-0.114,5.066,-8.728,31.799,1
1.437,0.068,-0.105,14.465,-32.227,30.64,1
1.365,-0.025,-0.079,20.752,-48.706,25.33,1
1.318,-0.073,-0.066,26.062,-57.739,13.367,1
1.287,-0.073,-0.068,27.893,-55.237,2.93,1
1.172,-0.093,-0.064,23.437,-39.185,-2.808,1
1.058,-0.113,-0.042,13.733,-21.24,-7.629,1
0.974,-0.154,-0.025,3.235,-8.606,-10.498,1
0.896,-0.238,0.003,-4.456,-1.099,-10.559,1
0.832,-0.261,0.023,-2.563,1.526,-8.85,1
0.784,-0.242,0.026,3.357,-0.244,-5.371,1
0.76,-0.259,0.028,7.019,-5.493,-1.404,1
0.781,-0.241,0.012,13.794,-12.878,2.686,1
0.154,1.486,-1.134,489.197,-139.587,1.953,0
0.354,1.605,-1.194,463.989,-222.595,-44.983,0
0.621,1.74,-1.259,435.486,-304.565,-95.215,0
0.94,1.805,-1.34,398.315,-372.253,-142.761,0
1.234,1.83,-1.465,360.291,-417.847,-184.143,0
1.468,1.809,-1.547,323.242,-444.458,-216.919,0
1.541,1.786,-1.521,289.307,-448.914,-240.662,0
1.5,1.709,-1.372,255.31,-437.805,-259.094,0
1.501,1.612,-1.181,223.022,-429.138,-279.297,0
1.499,1.522,-1.022,196.35,-429.443,-303.955,0
1.494,1.456,-0.903,172.852,-439.392,-325.989,0
1.591,1.344,-0.782,150.024,-456.482,-334.351,0
1.591,1.188,-0.712,132.141,-467.407,-336.548,0
1.543,1.073,-0.642,118.164,-466.858,-338.989,0
1.481,0.988,-0.583,100.403,-461.365,-347.168,0
1.335,0.834,-0.536,75.745,-448.425,-356.384,0
1.312,0.718,-0.456,52.49,-428.04,-365.906,0
1,0.634,-0.431,30.151,-416.382,-364.075,0
0.959,0.476,-0.382,1.953,-393.86,-364.38,0
0.751,0.279,-0.315,-14.038,-375.977,-370.117,0
0.576,0.285,-0.221,-25.818,-375.793,-386.108,0
0.456,0.282,-0.171,-38.635,-381.47,-376.587,0
0.324,0.17,-0.107,-56.946,-379.395,-359.863,0
0.142,0.067,-0.019,-76.111,-376.221,-356.384,0
0.094,-0.076,0.042,-85.815,-375.793,-362,0
0.002,-0.113,0.031,-82.581,-385.62,-372.62,0
-0.088,-0.066,-0.011,-77.087,-402.893,-372.62,0
-0.195,-0.008,-0.033,-82.52,-425.11,-360.474,0
-0.176,-0.04,-0.031,-94.971,-431.885,-343.75,0
-0.21,-0.107,0.038,-107.849,-441.956,-330.078,0
-0.167,-0.169,0.059,-109.619,-446.167,-319.397,0
-0.122,-0.085,0.016,-106.934,-440.918,-314.026,0
-0.092,0.052,-0.025,-112.793,-419.922,-304.382,0
-0.069,0.105,-0.061,-132.446,-383.972,-291.382,0
-0.105,0.137,-0.048,-157.471,-340.759,-274.292,0
-0.136,0.196,-0.002,-185.364,-299.316,-252.991,0
-0.139,0.254,0.109,-215.393,-257.08,-232.117,0
-0.284,0.305,0.234,-248.352,-217.102,-220.032,0
-0.481,0.404,0.326,-285.339,-187.378,-211.792,0
-0.635,0.4,0.533,-321.716,-177.063,-203.247,0
-0.706,0.348,0.861,-347.839,-191.04,-192.627,0
-0.766,0.359,1.164,-356.445,-210.754,-180.908,0
-0.595,0.326,1.423,-350.83,-216.614,-153.015,0
-0.399,0.285,1.621,-325.806,-205.75,-116.516,0
-0.272,0.416,1.814,-282.288,-184.631,-80.505,0
-0.244,0.675,1.998,-233.398,-143.005,-45.166,0
-0.304,0.947,2.177,-192.444,-86.06,-23.743,0
-0.367,1.105,2.269,-167.908,-34.79,-20.691,0
-0.403,1.253,2.315,-147.705,10.071,-26.55,0
-0.403,1.324,2.399,-125.122,51.575,-53.65,0
-0.327,1.312,2.523,-93.14,94.299,-80.688,0
-0.144,1.222,2.649,-55.481,139.099,-98.816,0
-0.073,0.872,2.651,-13.245,190.735,-100.403,0
0.075,0.665,2.521,41.931,221.741,-126.099,0
0.28,0.783,2.342,110.229,242.981,-137.085,0
0.279,0.901,2.143,150.879,269.165,-124.939,0
0.438,0.864,1.962,156.25,281.982,-125.061,0
0.52,0.783,1.762,153.015,299.377,-129.456,0
0.644,0.491,1.642,153.503,331.482,-146.973,0
0.681,0.613,1.527,164.062,359.558,-184.937,0
0.661,0.651,1.41,166.504,396.484,-191.711,0
0.677,0.524,1.289,155.151,420.227,-218.689,0
0.556,0.611,1.133,146.362,442.993,-243.591,0
0.473,0.538,1.003,133.179,455.811,-256.958,0
0.443,0.472,0.879,116.272,449.829,-277.466,0
0.371,0.441,0.727,99.548,433.96,-289.795,0
0.34,0.358,0.634,84.045,420.898,-289.368,0
0.319,0.303,0.6,73.608,408.447,-289.673,0
0.179,0.379,0.528,60.303,394.958,-300.476,0
0.108,0.351,0.46,37.292,378.418,-312.378,0
0.048,0.199,0.435,15.503,360.779,-319.092,0
-0.111,0.135,0.359,4.517,339.661,-311.096,0
-0.228,-0.023,0.305,-4.456,307.129,-291.687,0
-0.277,-0.244,0.27,-8.728,256.47,-268.005,0
-0.357,-0.347,0.201,3.784,194.58,-237.305,0
-0.395,-0.323,0.221,24.109,131.897,-189.27,0
-0.4,-0.393,0.232,37.292,84.351,-128.845,0
-0.485,-0.481,0.179,50.171,73.303,-80.383,0
0.281,-0.867,0.215,76.965,89.6,-57.373,0
-0.194,-0.449,0.182,99.243,114.929,-105.469,0
-0.359,0.01,0.041,117.798,119.69,-52.979,1
-0.153,-0.523,-0.066,87.28,125.183,1.526,1
-0.348,-0.494,-0.142,76.843,130.554,-9.766,1
-0.147,0.035,-0.065,78.125,134.277,13.184,1
-0.326,-0.586,-0.061,51.819,113.403,96.558,1
-0.149,-0.47,-0.084,49.561,132.141,117.371,1
-0.174,-0.522,-0.063,64.697,138.184,160.156,1
-0.133,-0.369,-0.156,68.359,120.056,169.006,1
0.079,-0.115,-0.279,78.796,99.487,195.679,1
0.508,-0.185,-0.383,74.646,69.58,210.876,1
0.735,0.244,-0.437,64.88,43.03,188.538,1
1.251,0.216,-0.414,62.805,22.705,193.848,1
1.67,0.392,-0.34,51.208,11.23,167.908,1
1.876,0.473,-0.299,51.453,-1.77,136.902,1
2.103,0.609,-0.278,55.786,-12.939,101.379,1
2.234,0.652,-0.27,57.861,-19.714,82.458,1
2.181,0.543,-0.202,49.316,-16.968,58.228,1
2.071,0.487,-0.152,45.044,-15.198,30.457,1
1.895,0.391,-0.155,41.87,-12.756,6.042,1
1.675,0.349,-0.163,34.18,-5.798,-13.977,1
1.446,0.211,-0.172,20.447,-0.671,-17.334,1
1.255,0.067,-0.158,7.324,-1.343,-13.123,1
1.096,-0.079,-0.123,-0.061,-5.432,-10.986,1
1.017,-0.229,-0.083,-0.916,-9.399,-9.094,1
0.941,-0.05,-0.068,2.136,-10.498,-4.272,1
0.81,-0.293,-0.048,1.038,-9.827,11.902,1
0.805,-0.194,-0.053,5.737,-11.475,19.592,1
0.757,-0.389,-0.016,9.583,-5.066,23.621,1
0.777,-0.205,-0.031,15.625,-6.531,3.723,1
0.802,-0.144,-0.053,21.545,-7.324,4.761,1
0.808,-0.12,-0.055,16.052,-5.188,8.057,1
0.823,-0.092,-0.065,7.812,-5.31,10.62,1
0.823,-0.149,-0.047,-3.113,-4.089,9.949,1
0.846,-0.163,-0.03,-8.728,-1.282,5.249,1
0.864,-0.145,-0.019,-8.545,3.479,4.639,1
0.874,-0.184,-0.002,-8.423,11.414,5.859,1
0.867,-0.203,-0.002,-3.235,19.47,5.737,1
0.857,-0.165,-0.022,5.92,23.865,4.822,1
0.839,-0.124,-0.038,13.672,24.414,7.385,1
1.2,1.434,-0.889,427.063,-438.171,-120.178,0
1.472,1.521,-1.021,403.015,-477.966,-167.48,0
1.542,1.473,-1.051,375.244,-493.774,-208.679,0
1.639,1.494,-1.008,355.347,-501.77,-243.713,0
1.737,1.518,-0.95,331.726,-506.653,-281.128,0
1.764,1.423,-0.885,293.64,-506.714,-320.129,0
1.791,1.336,-0.788,260.803,-506.104,-347.961,0
1.831,1.308,-0.719,234.741,-510.864,-364.075,0
1.794,1.254,-0.656,198.547,-510.742,-376.465,0
1.744,1.145,-0.584,152.893,-504.15,-383.24,0
1.672,1.008,-0.504,108.887,-491.76,-387.695,0
1.52,0.869,-0.449,67.81,-473.633,-393.311,0
1.347,0.711,-0.37,28.992,-452.393,-401.978,0
1.146,0.575,-0.305,-5.188,-434.448,-410.095,0
1.045,0.425,-0.235,-36.56,-418.701,-415.344,0
0.689,0.289,-0.16,-66.956,-411.133,-416.931,0
0.559,0.141,-0.034,-80.139,-418.701,-413.757,0
0.474,0.05,0.035,-75.378,-417.175,-411.316,0
0.306,0.133,0.282,-69.946,-415.955,-418.579,0
0.09,0.211,0.388,-80.566,-429.932,-421.875,0
0.002,0.13,0.48,-97.168,-427.124,-416.687,0
-0.113,0.077,0.513,-101.685,-429.016,-405.212,0
-0.225,0.086,0.575,-99.121,-435.608,-393.738,0
-0.256,0.048,0.606,-93.384,-439.819,-373.108,0
-0.307,0.055,0.575,-80.872,-431.152,-343.933,0
-0.21,0.073,0.518,-70.984,-416.87,-308.228,0
-0.126,0.04,0.478,-72.144,-395.935,-273.865,0
-0.146,-0.026,0.373,-75.562,-358.337,-243.652,0
-0.179,0.018,0.275,-76.477,-315.369,-222.046,0
-0.236,0.057,0.253,-87.463,-287.231,-204.102,0
-0.263,0.054,0.173,-101.685,-270.447,-196.472,0
-0.272,0.075,0.143,-115.967,-250.427,-194.763,0
-0.388,0.163,0.198,-135.62,-229.492,-197.144,0
-0.558,0.275,0.307,-164.551,-215.454,-202.698,0
-0.552,0.316,0.466,-200.684,-212.585,-202.759,0
-0.603,0.253,0.618,-232.422,-200.5,-205.078,0
-0.687,0.208,0.783,-250.977,-180.603,-198.486,0
-0.583,0.22,0.958,-254.883,-168.518,-176.819,0
-0.45,0.219,1.13,-246.46,-146.362,-151.55,0
-0.438,0.298,1.32,-232.3,-110.535,-124.817,0
-0.464,0.431,1.475,-223.45,-67.017,-93.262,0
-0.583,0.516,1.642,-219.36,-26.367,-68.42,0
-0.636,0.653,1.854,-213.806,-0.061,-54.871,0
-0.616,0.798,2.035,-195.74,18.188,-51.819,0
-0.593,0.894,2.206,-166.321,26.978,-60.913,0
-0.547,1.059,2.296,-125.122,40.527,-69.153,0
-0.408,1.175,2.37,-90.21,65.857,-73.853,0
-0.274,1.112,2.506,-70.618,104.858,-78.674,0
-0.184,0.943,2.615,-49.194,157.593,-80.566,0
-0.099,0.776,2.637,-12.268,210.51,-83.069,0
0.023,0.646,2.552,40.833,246.094,-89.539,0
0.079,0.637,2.41,102.661,273.254,-94.666,0
0.204,0.683,2.2,159.302,297.241,-110.046,0
0.255,0.816,1.941,193.665,323.181,-116.211,0
0.495,0.663,1.775,192.993,341.003,-132.69,0
0.628,0.708,1.602,182.739,365.295,-144.165,0
0.564,0.646,1.47,161.072,403.198,-137.573,0
0.683,0.432,1.459,144.043,433.655,-151.978,0
0.506,0.489,1.338,139.16,464.05,-187.683,0
0.412,0.468,1.238,135.315,488.953,-217.834,0
0.237,0.534,1.068,125.916,478.516,-258.301,0
0.266,0.502,0.826,116.455,450.928,-270.691,0
0.232,0.306,0.719,100.891,422.058,-284.607,0
0.257,0.264,0.625,94.116,397.217,-301.941,0
0.178,0.363,0.487,87.158,380.615,-298.706,0
0.173,0.253,0.426,69.092,374.939,-276.672,0
0.205,0.18,0.406,50.171,371.643,-263.916,0
0.187,0.095,0.385,36.682,367.92,-255.005,0
0.046,0.068,0.382,25.024,370.361,-251.282,0
-0.131,0.093,0.386,16.541,365.662,-247.07,0
-0.38,0.032,0.386,8.118,341.553,-240.54,0
-0.512,-0.111,0.349,4.272,288.452,-229.065,0
-0.55,-0.239,0.257,12.573,215.515,-211.426,0
-0.444,-0.36,0.226,29.297,145.63,-189.27,0
-0.218,-0.516,0.282,48.035,113.953,-165.344,0
-0.272,-0.454,0.14,81.604,107.788,-131.042,0
-0.288,-0.148,0.068,98.877,93.75,-104.858,0
-0.151,-0.244,0.065,92.773,96.313,-40.344,0
0.005,-0.5,0.029,72.998,120.239,10.071,0
-0.119,-0.456,-0.042,70.19,150.452,14.709,0
-0.346,-0.267,0.03,80.627,180.603,20.447,0
-0.395,-0.189,-0.05,75.867,165.588,61.768,0
-0.368,-0.517,-0.151,62.439,152.466,112.183,0
-0.203,-0.361,-0.162,60.547,150.879,134.827,0
-0.146,-0.486,-0.208,68.481,140.747,191.345,0
0.044,-0.6,-0.24,64.758,132.141,197.571,0
0.165,-0.298,-0.245,77.026,130.31,195.557,0
0.332,-0.094,-0.368,87.524,123.169,223.694,0
0.648,-0.02,-0.456,99.915,112.366,249.573,0
0.942,0.212,-0.546,101.624,66.833,222.107,0
1.423,0.453,-0.643,90.942,7.69,161.255,0
1.88,0.589,-0.64,81.482,-41.382,123.047,0
2.278,0.725,-0.609,70.496,-64.026,94.727,0
2.448,0.728,-0.542,52.979,-46.936,76.843,0
2.454,0.679,-0.466,42.358,-13.855,70.74,0
2.288,0.687,-0.406,37.964,18.982,53.223,0
2.059,0.608,-0.378,25.635,34.851,24.353,1
1.82,0.518,-0.38,11.414,31.921,0.244,1
1.603,0.368,-0.338,-1.343,17.761,-11.414,1
1.382,0.024,-0.293,-11.963,1.16,-19.775,1
1.302,0.12,-0.231,-10.62,-11.902,-13.123,1
1.129,-0.123,-0.157,-21.667,-31.311,-37.72,1
1.121,-0.02,-0.178,-7.751,-42.358,-38.025,1
1.034,-0.228,-0.135,-3.662,-33.325,-17.761,1
0.958,-0.093,-0.131,3.052,-27.71,-13.794,1
0.839,-0.237,-0.108,3.967,-18.25,-3.784,1
0.818,-0.202,-0.129,2.93,-15.259,-13.55,1
0.794,-0.162,-0.15,7.141,-14.282,-19.592,1
0.773,-0.151,-0.139,4.7,-13.123,-21.057,1
0.728,-0.162,-0.158,1.892,-16.846,-18.677,1
0.743,-0.126,-0.17,-0.732,-19.531,-15.137,1
0.791,-0.17,-0.156,-5.249,-21.729,-13.123,1
0.817,-0.143,-0.124,-6.592,-16.785,-10.559,1
0.816,-0.182,-0.09,-7.812,-7.812,-10.376,1
0.805,-0.151,-0.084,-3.113,0,-11.23,1
0.781,-0.161,-0.098,2.197,5.615,-9.949,1
0.763,-0.121,-0.115,8.118,5.737,-9.216,1
0.765,-0.104,-0.149,12.451,-0.122,-6.897,1
0.761,-0.152,-0.135,13.489,-4.883,1.404,1
0.427,1.611,-1.081,506.348,-141.235,-10.376,0
0.541,1.725,-1.212,450.012,-164.734,-55.725,0
0.698,1.77,-1.336,391.357,-191.345,-99.182,0
0.828,1.759,-1.399,335.144,-219.482,-130.92,0
0.955,1.776,-1.385,286.56,-235.046,-158.203,0
1.078,1.793,-1.281,250,-241.211,-183.777,0
1.098,1.786,-1.133,225.403,-241.089,-212.585,0
1.102,1.784,-0.982,208.008,-239.258,-243.103,0
1.054,1.706,-0.86,194.458,-245.056,-270.996,0
1.022,1.59,-0.75,180.542,-264.465,-295.898,0
1.037,1.43,-0.653,170.532,-299.072,-314.575,0
1.074,1.264,-0.578,170.227,-338.623,-326.782,0
1.158,1.126,-0.504,177.185,-369.08,-334.9,0
1.307,1.138,-0.453,181.946,-389.221,-353.455,0
1.134,0.915,-0.383,177.368,-393.921,-348.022,0
1.286,0.92,-0.43,161.987,-387.207,-372.131,0
1.03,0.725,-0.347,150.269,-365.845,-366.516,0
0.983,0.688,-0.348,127.93,-360.84,-396.362,0
0.939,0.553,-0.34,107.666,-359.253,-395.264,0
0.822,0.321,-0.294,97.9,-350.647,-386.536,0
0.797,0.348,-0.238,100.037,-335.754,-395.508,0
0.64,0.414,-0.193,93.506,-321.96,-395.142,0
0.537,0.347,-0.14,72.144,-303.223,-392.456,0
0.407,0.293,-0.112,48.157,-291.931,-395.386,0
0.283,0.25,-0.071,27.71,-291.809,-389.465,0
0.196,0.143,-0.064,12.085,-297.058,-377.441,0
0.166,0.022,-0.047,1.404,-300.415,-372.559,0
0.046,-0.037,-0.025,-1.587,-313.354,-369.263,0
0.016,-0.064,-0.006,0.793,-324.646,-361.511,0
-0.004,-0.067,0.006,1.831,-341.675,-350.403,0
-0.014,-0.088,0.004,-4.7,-357.3,-337.708,0
-0.034,-0.116,0.01,-15.32,-371.033,-324.219,0
-0.043,-0.12,0.022,-25.574,-383.972,-312.5,0
-0.034,-0.094,0.003,-40.161,-392.334,-306.702,0
-0.061,-0.077,-0.016,-62.683,-395.996,-306.702,0
-0.133,0.01,-0.029,-92.163,-398.621,-311.829,0
-0.138,0.11,0.032,-128.174,-400.391,-316.956,0
-0.06,0.166,0.172,-166.321,-389.099,-322.205,0
-0.014,0.227,0.238,-199.158,-350.525,-323.669,0
-0.024,0.308,0.261,-227.844,-295.105,-316.895,0
0.003,0.436,0.289,-256.653,-236.633,-301.88,0
-0.026,0.557,0.403,-290.833,-180.115,-285.828,0
-0.084,0.615,0.797,-334.473,-127.441,-268.921,0
-0.256,0.557,1.28,-379.822,-64.331,-248.169,0
-0.553,0.452,1.594,-405.64,3.418,-215.149,0
-0.541,0.34,1.771,-396.423,31.555,-171.082,0
-0.433,0.062,1.945,-355.347,11.658,-135.254,0
-0.447,-0.003,2.019,-272.705,-30.518,-100.037,0
-0.436,0.435,2.045,-171.997,-61.462,-80.627,0
-0.279,0.876,2.055,-108.398,-82.825,-61.462,0
-0.265,1.09,2.21,-97.168,-59.937,-54.321,0
-0.224,1.07,2.37,-106.14,-23.193,-60.852,0
-0.093,0.909,2.52,-100.952,26.245,-73.608,0
0.028,0.809,2.633,-66.65,95.154,-82.52,0
0.117,0.755,2.543,-18.433,167.847,-89.539,0
0.104,0.74,2.427,24.109,227.905,-96.924,0
0.172,0.705,2.276,58.35,260.437,-100.464,0
0.232,0.631,2.101,84.412,279.541,-104.187,0
0.374,0.61,1.94,104.553,289.001,-117.249,0
0.481,0.617,1.77,116.76,302.002,-127.991,0
0.599,0.513,1.644,119.141,320.374,-142.212,0
0.692,0.494,1.513,121.094,340.271,-164.49,0
0.729,0.48,1.376,121.704,362.427,-175.232,0
0.733,0.314,1.263,116.699,387.329,-190.796,0
0.766,0.333,1.15,121.887,409.546,-212.341,0
0.758,0.424,1.056,125.977,424.927,-227.478,0
0.61,0.403,0.968,114.746,438.049,-235.84,0
0.487,0.407,0.866,99.426,446.472,-241.272,0
0.33,0.37,0.784,84.229,441.65,-251.221,0
0.208,0.314,0.699,66.162,417.847,-270.508,0
0.18,0.218,0.578,50.171,376.953,-286.377,0
0.199,0.115,0.437,39.063,336.304,-287.903,0
0.133,-0.002,0.375,31.494,309.021,-283.203,0
0.029,-0.046,0.359,30.212,292.542,-266.602,0
-0.076,-0.084,0.319,28.625,270.142,-237.061,0
-0.126,-0.194,0.263,23.437,243.835,-202.759,0
-0.208,-0.278,0.212,22.766,215.576,-170.166,0
-0.353,-0.309,0.169,28.931,181.58,-138.428,0
-0.387,-0.312,0.165,37.292,136.475,-108.459,0
-0.361,-0.307,0.229,42.297,90.454,-78.979,0
-0.385,-0.33,0.148,42.358,64.026,-68.054,0
-0.032,-0.361,0.065,51.27,55.359,-50.232,0
-0.065,-0.526,0.011,55.42,41.626,-43.396,0
-0.214,-0.409,-0.033,57.434,40.222,-50.72,1
-0.099,-0.361,-0.078,61.462,49.866,-32.288,1
-0.157,-0.355,-0.087,49.316,74.524,-11.719,1
-0.216,-0.711,-0.128,39.795,101.074,22.095,1
-0.372,-0.49,-0.198,35.583,127.625,26.123,1
-0.511,-0.463,-0.132,34.302,143.494,54.382,1
-0.478,-0.241,-0.237,23.926,117.615,116.882,1
-0.36,-0.467,-0.314,5.066,101.99,185.608,1
-0.034,-0.302,-0.361,1.648,85.449,205.994,1
0.255,-0.123,-0.306,4.272,65.063,234.009,1
0.657,-0.013,-0.262,-2.014,28.625,242.798,1
1.16,0.232,-0.234,-3.418,-2.991,227.234,1
1.723,0.271,-0.093,-3.174,-11.414,208.313,1
2.034,0.602,-0.05,2.014,-10.254,174.927,1
2.277,0.717,0.061,5.188,16.174,153.442,1
2.351,0.544,0.147,0.061,27.954,127.563,1
2.34,0.785,0.144,11.963,23.865,81.055,1
2.273,0.692,0.158,13.855,18.188,50.232,1
2.151,0.536,0.153,10.559,11.169,29.236,1
1.922,0.399,0.146,13.306,3.845,12.878,1
1.71,0.298,0.123,16.724,-5.676,0.671,1
1.494,0.129,0.113,16.663,-12.085,-7.996,1
1.326,0.059,0.098,18.86,-21.057,-16.479,1
1.171,-0.019,0.07,20.63,-26.855,-19.226,1
1.078,-0.069,0.063,19.348,-31.128,-16.968,1
0.958,0.026,0.065,16.846,-32.349,-8.362,1
0.909,-0.366,0.083,13.184,-30.09,-2.136,1
0.875,-0.078,-0.064,17.578,-35.522,-15.991,1
0.797,-0.237,0.044,14.709,-11.597,2.319,1
0.845,-0.237,0.017,6.714,-15.991,1.465,1
0.832,-0.125,0.001,9.46,-10.437,9.949,1
0.83,-0.328,0.041,5.188,-4.272,15.625,1
0.796,-0.152,-0.003,10.132,-2.075,-5.371,1
0.804,-0.178,0,15.015,3.845,-8.179,1
0.78,-0.148,-0.003,13.611,8.057,-11.169,1
0.777,-0.111,-0.024,14.221,8.972,-6.042,1
0.206,1.071,-1.418,319.58,-83.862,41.626,0
0.285,1.042,-1.415,278.198,-151.306,19.287,0
0.446,1.047,-1.419,251.221,-220.52,-3.662,0
0.594,1.029,-1.423,234.619,-280.396,-27.344,0
0.744,1.014,-1.443,228.333,-330.566,-47.485,0
0.926,0.969,-1.455,227.539,-372.986,-60.547,0
1.038,0.952,-1.423,236.694,-403.015,-69.519,0
1.153,1.005,-1.29,251.831,-415.161,-77.332,0
1.193,1.039,-1.11,261.047,-413.269,-87.646,0
1.249,1.016,-0.954,261.353,-404.358,-108.093,0
1.211,1.116,-0.846,262.085,-400.024,-126.343,0
1.186,1.06,-0.75,248.047,-409.424,-139.771,0
1.256,0.974,-0.689,234.009,-430.847,-159.546,0
1.299,0.946,-0.641,224.609,-451.233,-173.157,0
1.286,0.773,-0.629,216.187,-459.167,-185.242,0
1.293,0.695,-0.636,208.618,-455.811,-225.037,0
1.27,0.738,-0.625,198.853,-444.885,-256.104,0
1.194,0.669,-0.613,176.453,-422.852,-267.273,0
1.133,0.623,-0.557,150.696,-393.188,-276.978,0
0.98,0.547,-0.474,125.854,-360.229,-290.161,0
0.814,0.498,-0.373,103.821,-333.313,-304.81,0
0.687,0.421,-0.309,81.543,-321.228,-319.458,0
0.605,0.332,-0.283,62.012,-322.144,-332.031,0
0.545,0.276,-0.254,47.791,-330.505,-341.675,0
0.423,0.238,-0.195,37.17,-338.928,-348.511,0
0.335,0.235,-0.105,22.827,-346.802,-355.713,0
0.244,0.176,-0.057,2.869,-355.835,-356.812,0
0.194,0.079,-0.028,-15.076,-364.258,-356.14,0
0.154,0.035,0.004,-27.649,-378.662,-361.023,0
0.08,-0.021,0.038,-38.879,-394.47,-364.563,0
0.006,-0.089,0.071,-47.302,-407.349,-363.708,0
-0.043,-0.112,0.097,-54.932,-425.964,-362.793,0
-0.065,-0.153,0.122,-62.256,-449.646,-360.229,0
-0.031,-0.123,0.127,-65.063,-462.891,-355.957,0
-0.057,0.017,0.144,-73.059,-463.684,-354.37,0
-0.049,0.096,0.184,-93.567,-450.256,-351.746,0
-0.082,0.13,0.178,-121.765,-426.758,-347.534,0
-0.096,0.21,0.206,-152.832,-402.71,-340.271,0
-0.073,0.296,0.33,-190.796,-376.099,-331.482,0
-0.071,0.303,0.467,-231.323,-329.834,-320.74,0
-0.148,0.293,0.609,-265.015,-267.578,-305.298,0
-0.25,0.338,0.715,-288.513,-209.534,-283.813,0
-0.361,0.375,0.86,-308.044,-164.49,-262.268,0
-0.548,0.357,1.091,-325.378,-132.812,-241.272,0
-0.716,0.301,1.404,-337.646,-108.704,-219.36,0
-0.761,0.158,1.651,-328.43,-104.004,-190.247,0
-0.646,0.142,1.803,-290.405,-126.587,-148.437,0
-0.542,0.154,1.78,-236.755,-146.118,-109.375,0
-0.459,0.426,1.77,-182.19,-155.09,-90.027,0
-0.353,0.773,1.776,-149.78,-136.292,-73.914,0
-0.369,0.882,1.999,-146.667,-91.919,-68.848,0
-0.319,0.858,2.266,-150.208,-35.645,-69.824,0
-0.266,0.79,2.411,-134.216,36.926,-75.5,0
-0.206,0.667,2.449,-96.68,111.084,-87.158,0
-0.216,0.638,2.408,-43.274,166.321,-98.877,0
-0.2,0.735,2.354,14.038,206.421,-94.421,0
-0.094,0.709,2.215,54.138,228.821,-87.891,0
0.052,0.62,2.05,82.092,244.995,-86.06,0
0.207,0.613,1.882,106.995,263.916,-91.797,0
0.341,0.661,1.727,122.375,284.119,-96.924,0
0.379,0.606,1.572,119.446,312.561,-105.591,0
0.413,0.505,1.434,111.938,341.125,-121.948,0
0.419,0.411,1.311,108.154,361.389,-139.16,0
0.458,0.378,1.227,109.131,372.375,-155.273,0
0.535,0.344,1.116,112.915,378.662,-169.189,0
0.575,0.347,0.997,113.77,384.46,-187.5,0
0.557,0.33,0.892,107.727,395.935,-201.721,0
0.535,0.351,0.766,96.68,411.072,-209.351,0
0.477,0.363,0.665,80.811,424.622,-208.252,0
0.411,0.282,0.61,56.702,430.237,-210.388,0
0.391,0.22,0.562,37.048,425.964,-221.741,0
0.321,0.27,0.486,20.447,420.105,-235.168,0
0.258,0.263,0.456,-1.587,410.583,-247.742,0
0.18,0.141,0.441,-22.034,399.109,-256.348,0
-0.041,0.051,0.435,-32.959,380.31,-257.385,0
-0.194,-0.062,0.407,-37.048,349.121,-249.207,0
-0.239,-0.139,0.407,-34.912,306.152,-233.032,0
-0.373,-0.242,0.316,-29.297,264.404,-206.97,0
-0.351,-0.315,0.169,-15.991,212.952,-175.964,0
-0.261,-0.393,0.164,-4.211,158.386,-147.766,0
-0.183,-0.442,0.176,10.925,124.573,-117.798,0
-0.115,-0.417,0.19,30.396,105.225,-82.092,0
-0.078,-0.491,0.171,43.945,100.952,-47.729,0
-0.162,-0.436,0.094,52.49,116.943,-22.888,1
-0.131,-0.422,0.047,65.063,137.756,14.465,1
-0.079,-0.425,0.019,69.641,149.414,27.466,1
-0.118,-0.267,-0.061,74.524,152.649,42.114,1
-0.137,-0.241,-0.104,62.317,154.297,56.763,1
-0.082,-0.325,-0.12,46.021,140.625,81.36,1
0.122,-0.297,-0.16,41.687,125.977,104.614,1
0.358,-0.19,-0.188,47.913,122.375,131.531,1
0.566,-0.088,-0.171,53.406,128.845,160.522,1
0.785,0.086,-0.143,60.974,128.906,179.26,1
0.997,0.328,-0.248,67.322,103.882,182.129,1
1.286,0.425,-0.307,66.101,64.27,171.448,1
1.593,0.719,-0.305,57.312,17.456,136.536,1
1.854,0.786,-0.258,41.138,-30.457,125.061,1
2.062,0.569,-0.198,15.564,-53.833,109.131,1
2.203,0.531,-0.096,9.888,-53.345,85.51,1
2.177,0.484,-0.058,12.146,-35.767,59.753,1
2.023,0.512,-0.045,16.296,-4.944,42.358,1
1.743,0.311,-0.021,15.198,18.494,30.579,1
1.572,0.316,-0.047,16.724,24.536,8.667,1
1.358,0.213,-0.068,20.691,21.912,4.761,1
1.173,0.158,-0.053,19.226,13.062,0.549,1
1.14,0.217,-0.089,20.63,-2.625,-8.301,1
1.013,-0.037,-0.078,23.926,-12.695,8.484,1
1.047,-0.014,-0.102,20.081,-19.226,4.517,1
0.895,0.106,-0.086,20.508,-20.02,14.16,1
0.965,0.002,-0.081,7.385,-27.344,27.161,1
0.903,-0.026,-0.076,1.343,-23.621,39.856,1
0.941,-0.103,-0.069,-2.441,-16.846,27.527,1
0.929,-0.019,-0.064,-0.366,-5.615,4.211,1
0.907,-0.011,-0.051,1.831,3.906,-4.211,1
0.874,0.022,-0.042,-0.305,10.132,-7.629,1
0.833,-0.011,-0.048,-0.488,12.207,-8.545,1
0.811,-0.053,-0.041,2.441,10.986,-11.414,1
0.819,0.02,-0.067,6.836,6.958,-15.381,1
0.821,0.032,-0.067,9.766,5.127,-9.094,1
0.207,1.494,-1.667,447.449,9.888,33.936,0
0.349,1.689,-1.904,395.752,-38.208,15.015,0
0.419,1.757,-2.103,327.026,-82.031,-12.085,0
0.51,1.739,-2.233,259.46,-128.54,-46.021,0
0.694,1.624,-2.302,201.904,-180.359,-79.651,0
0.7,1.436,-2.236,168.03,-231.934,-104.919,0
0.799,1.431,-2.081,156.799,-276.978,-129.272,0
0.806,1.279,-1.853,155.884,-310.608,-133.789,0
0.825,1.213,-1.625,153.076,-337.463,-154.358,0
0.892,1.178,-1.429,156.555,-369.507,-164.551,0
0.974,1.071,-1.266,154.907,-398.56,-172.729,0
1.018,1.037,-1.131,151.428,-416.443,-189.209,0
1.008,0.936,-1.013,145.813,-421.753,-199.646,0
0.908,0.787,-0.917,142.7,-421.387,-208.618,0
0.965,0.768,-0.848,143.494,-422.607,-228.027,0
0.879,0.691,-0.819,145.63,-423.767,-233.704,0
0.932,0.579,-0.8,139.709,-418.762,-235.779,0
0.799,0.741,-0.692,137.817,-400.391,-231.995,0
0.72,0.442,-0.582,119.263,-397.095,-222.778,0
0.703,0.329,-0.54,107.056,-389.038,-255.92,0
0.693,0.357,-0.493,108.398,-380.981,-287.476,0
0.644,0.398,-0.448,101.685,-375.854,-309.204,0
0.567,0.33,-0.427,87.463,-380.188,-313.171,0
0.56,0.269,-0.414,74.463,-385.315,-314.453,0
0.536,0.213,-0.403,66.223,-385.132,-314.697,0
0.446,0.179,-0.364,53.101,-378.235,-325.012,0
0.336,0.185,-0.331,35.156,-373.413,-332.458,0
0.264,0.15,-0.275,10.071,-371.521,-332.642,0
0.152,0.04,-0.223,-15.991,-370.728,-332.52,0
0.085,-0.062,-0.138,-33.752,-377.319,-335.693,0
0.068,-0.126,-0.101,-38.391,-391.296,-340.881,0
0.04,-0.162,-0.069,-36.682,-407.532,-347.656,0
0.034,-0.184,-0.031,-33.508,-420.471,-348.877,0
0.03,-0.158,0.037,-32.532,-425.964,-349.915,0
-0.029,-0.104,0.125,-38.513,-427.368,-351.501,0
-0.091,-0.078,0.211,-52.856,-425.293,-352.356,0
-0.128,-0.056,0.259,-70.618,-419.312,-352.051,0
-0.194,-0.04,0.289,-89.417,-415.161,-348.572,0
-0.221,0.006,0.282,-108.704,-410.706,-340.698,0
-0.248,0.037,0.316,-134.277,-404.541,-333.679,0
-0.239,0.057,0.381,-163.147,-393.311,-326.111,0
-0.221,0.078,0.432,-190.308,-370.422,-315.979,0
-0.229,0.071,0.463,-214.417,-337.341,-302.429,0
-0.274,0.061,0.501,-232.483,-297.546,-284.058,0
-0.288,0.058,0.591,-246.338,-253.967,-260.132,0
-0.322,0.056,0.681,-254.639,-209.412,-236.572,0
-0.416,0.072,0.766,-258.728,-173.889,-219.482,0
-0.48,0.154,0.908,-261.841,-155.457,-208.313,0
-0.523,0.224,1.145,-270.569,-142.639,-198.181,0
-0.593,0.206,1.446,-283.447,-119.812,-186.279,0
-0.588,0.145,1.705,-281.799,-95.337,-168.762,0
-0.605,0.195,1.849,-253.784,-83.313,-147.461,0
-0.639,0.367,1.981,-212.219,-77.942,-123.962,0
-0.475,0.525,2.057,-175.781,-62.927,-97.351,0
-0.456,0.74,2.138,-149.048,-29.297,-85.693,0
-0.462,0.921,2.224,-136.292,3.479,-89.111,0
-0.357,1.032,2.406,-130.981,51.697,-101.563,0
-0.273,0.995,2.53,-129.883,112.122,-108.643,0
-0.18,0.766,2.651,-117.981,185.547,-108.582,0
-0.085,0.599,2.563,-82.52,247.742,-106.567,0
0.038,0.542,2.414,-32.654,294.128,-104.004,0
0.153,0.47,2.246,15.747,322.754,-106.628,0
0.289,0.426,2.079,63.66,341.614,-117.31,0
0.453,0.452,1.938,110.413,361.816,-135.559,0
0.57,0.536,1.763,145.386,385.925,-158.813,0
0.68,0.632,1.602,158.63,413.147,-178.101,0
0.716,0.607,1.463,149.597,445.007,-197.144,0
0.634,0.526,1.333,130.981,475.525,-223.389,0
0.515,0.506,1.191,112.427,491.028,-252.991,0
0.414,0.424,1.036,92.041,484.009,-268.494,0
0.354,0.249,0.906,71.472,458.252,-277.405,0
0.391,0.157,0.764,62.988,430.237,-282.349,0
0.397,0.195,0.696,63.049,407.898,-285.095,0
0.36,0.234,0.644,59.387,392.517,-283.142,0
0.349,0.275,0.593,46.57,383.057,-279.175,0
0.272,0.144,0.557,27.588,381.531,-266.541,0
0.186,0.048,0.533,9.827,379.15,-263.855,0
0.053,-0.072,0.495,2.075,371.704,-251.404,0
-0.137,-0.121,0.431,2.014,360.046,-232.544,0
-0.31,-0.252,0.382,3.174,331.36,-213.989,0
-0.429,-0.303,0.34,7.812,282.837,-192.078,0
-0.417,-0.276,0.237,18.494,230.103,-156.128,0
-0.336,-0.352,0.165,25.269,185.059,-118.408,0
-0.281,-0.371,0.131,31.921,153.503,-87.463,0
-0.161,-0.264,0.139,37.964,137.451,-59.937,0
-0.094,-0.446,0.078,32.349,145.142,-46.082,0
-0.171,-0.298,0.013,30.701,180.969,-33.691,0
-0.17,-0.497,0.075,30.762,207.336,15.869,0
-0.357,-0.647,0.2,28.259,204.163,31.982,0
-0.232,-0.586,0.286,40.405,178.406,47.791,0
-0.115,-0.507,0.102,54.199,165.588,64.697,0
-0.246,-0.444,-0.024,58.899,178.65,85.999,1
-0.272,-0.415,-0.059,70.923,175.537,122.62,1
-0.272,-0.196,-0.159,79.346,148.132,148.071,1
-0.079,-0.264,-0.271,82.214,95.276,171.57,1
0.215,0.031,-0.401,94.116,39.49,193.42,1
0.638,-0.075,-0.46,101.135,-11.475,193.42,1
1.113,0.51,-0.548,108.276,-53.833,173.34,1
1.573,0.627,-0.56,94.36,-68.359,204.407,1
1.929,0.595,-0.501,56.58,-59.753,200.378,1
2.13,0.753,-0.454,40.771,-42.175,177.429,1
2.262,0.798,-0.409,28.687,-15.564,144.836,1
2.245,0.717,-0.367,12.207,11.414,105.347,1
2.084,0.603,-0.324,4.517,32.166,57.556,1
1.927,0.782,-0.314,6.409,33.813,24.841,1
1.716,0.492,-0.252,0.854,24.353,25.085,1
1.582,0.365,-0.214,1.831,4.028,14.832,1
1.464,0.27,-0.175,13.123,-14.954,11.108,1
1.466,0.061,-0.145,20.142,-29.48,4.944,1
1.296,0.319,-0.182,27.527,-32.532,7.08,1
1.206,-0.163,-0.143,23.437,-27.344,14.282,1
1.172,0.193,-0.174,23.376,-20.63,-22.4,1
0.89,0.092,-0.161,24.902,-19.165,4.028,1
1.013,0.065,-0.197,3.357,-24.902,2.441,1
0.895,0.037,-0.169,7.263,-17.456,32.837,1
0.929,-0.108,-0.137,-8.301,-16.663,15.076,1
0.895,-0.056,-0.132,-8.24,-17.761,-8.667,1
0.966,0.002,-0.114,-4.7,-15.32,-19.531,1
0.963,0.027,-0.091,-1.526,-4.639,-10.62,1
-0.125,1.611,-1.194,457.153,-9.827,18.25,0
0.013,1.962,-1.338,453.674,-73.914,-2.93,0
0.279,2.074,-1.524,430.664,-137.024,-28.259,0
0.5,2.117,-1.645,407.227,-182.739,-57.495,0
0.611,2.146,-1.741,379.761,-212.097,-88.684,0
0.685,2.068,-1.761,341.248,-231.323,-119.812,0
0.759,2.014,-1.694,305.176,-245.056,-143.188,0
0.733,1.933,-1.559,273.926,-245.972,-166.504,0
0.686,1.9,-1.396,252.991,-244.019,-189.148,0
0.665,1.893,-1.264,234.863,-252.441,-212.708,0
0.63,1.786,-1.154,211.121,-266.174,-236.145,0
0.666,1.662,-1.049,190.918,-282.776,-256.287,0
0.742,1.515,-0.957,178.284,-300.354,-276.611,0
0.786,1.386,-0.866,174.5,-314.514,-301.819,0
0.854,1.315,-0.764,177.856,-323.303,-331.421,0
0.826,1.281,-0.705,181.03,-330.811,-353.149,0
0.936,1.209,-0.654,177.124,-339.172,-378.479,0
0.987,1.109,-0.639,172.974,-341.614,-399.536,0
0.891,1.176,-0.578,159.912,-335.022,-413.208,0
0.906,0.941,-0.551,134.949,-335.632,-418.274,0
0.9,0.903,-0.553,117.126,-329.346,-440.063,0
0.829,0.836,-0.529,105.225,-310.303,-448.12,0
0.694,0.805,-0.487,86.914,-288.147,-455.322,0
0.618,0.673,-0.471,62.5,-275.146,-455.017,0
0.575,0.542,-0.452,40.1,-267.517,-454.651,0
0.513,0.486,-0.428,27.039,-258.179,-446.35,0
0.453,0.443,-0.377,12.207,-243.53,-434.631,0
0.315,0.358,-0.324,-10.254,-228.638,-426.636,0
0.179,0.247,-0.258,-33.997,-222.168,-423.645,0
0.092,0.11,-0.187,-50.537,-229.37,-426.27,0
-0.025,0.036,-0.131,-55.176,-247.62,-435.669,0
-0.131,0.036,-0.105,-55.298,-273.071,-443.604,0
-0.2,0.006,-0.057,-61.34,-299.988,-443.787,0
-0.236,-0.041,0.01,-69.824,-324.585,-441.772,0
-0.32,-0.07,0.098,-76.416,-347.107,-438.843,0
-0.308,-0.089,0.141,-81.848,-365.723,-429.199,0
-0.297,-0.091,0.109,-88.135,-379.089,-416.687,0
-0.314,-0.102,0.06,-97.229,-389.343,-402.344,0
-0.27,-0.071,0.002,-106.079,-397.644,-383.911,0
-0.257,-0.011,-0.052,-119.202,-404.541,-368.896,0
-0.266,0.046,-0.085,-137.695,-411.499,-359.131,0
-0.204,0.148,-0.071,-163.94,-414.124,-355.225,0
-0.148,0.269,0.052,-200.195,-399.231,-357.971,0
-0.109,0.329,0.27,-241.455,-355.408,-365.54,0
-0.161,0.372,0.435,-275.452,-278.992,-369.507,0
-0.395,0.43,0.586,-301.575,-193.604,-358.826,0
-0.612,0.426,0.728,-325.195,-126.282,-329.224,0
-0.715,0.353,0.901,-342.712,-93.018,-288.452,0
-0.819,0.27,1.115,-346.252,-93.506,-247.07,0
-0.931,0.204,1.358,-337.891,-108.765,-208.069,0
-0.903,0.157,1.621,-319.885,-122.681,-170.654,0
-0.714,0.218,1.792,-290.283,-120.178,-139.404,0
-0.635,0.355,1.92,-254.15,-105.835,-117.737,0
-0.632,0.539,2.11,-215.515,-86.914,-102.478,0
-0.622,0.714,2.235,-180.237,-59.692,-97.595,0
-0.574,0.726,2.332,-156.677,-29.358,-98.145,0
-0.487,0.715,2.43,-128.723,5.981,-97.656,0
-0.441,0.7,2.544,-89.172,49.622,-94.238,0
-0.395,0.732,2.573,-44.983,97.473,-89.294,0
-0.274,0.597,2.583,-2.563,141.663,-82.581,0
-0.158,0.503,2.534,42.847,181.58,-83.313,0
-0.011,0.564,2.428,86.365,204.712,-86.548,0
0.123,0.585,2.266,111.572,236.145,-83.374,0
0.163,0.594,2.152,119.751,267.273,-84.229,0
0.252,0.534,2.012,117.371,288.818,-87.708,0
0.332,0.424,1.952,115.417,311.096,-92.468,0
0.293,0.348,1.922,119.08,325.989,-107.056,0
0.344,0.273,1.777,131.47,335.754,-121.643,0
0.39,0.231,1.584,149.292,338.989,-140.015,0
0.428,0.235,1.396,168.274,336.06,-161.804,0
0.463,0.214,1.241,182.495,330.994,-177.551,0
0.536,0.208,1.099,191.895,333.191,-185.425,0
0.512,0.273,0.98,192.139,344.91,-192.688,0
0.441,0.376,0.869,178.223,361.145,-201.172,0
0.38,0.428,0.778,148.621,374.756,-210.632,0
0.295,0.325,0.704,112.183,383.606,-218.628,0
0.233,0.257,0.622,81.97,388,-222.534,0
0.131,0.181,0.551,57.983,387.39,-224.121,0
-0.017,0.117,0.486,36.682,376.892,-224.854,0
-0.115,0.012,0.44,18.86,356.934,-224.243,0
-0.202,-0.053,0.401,8.85,328.369,-221.069,0
-0.2,-0.077,0.4,7.263,294.495,-208.679,0
-0.217,-0.175,0.377,10.925,259.827,-190.735,0
-0.13,-0.239,0.335,16.663,232.849,-174.011,0
-0.126,-0.302,0.287,22.095,212.097,-148.56,0
-0.104,-0.381,0.235,29.053,212.83,-127.563,0
0.025,-0.356,0.184,40.771,225.647,-115.051,0
-0.035,-0.274,0.163,42.297,238.403,-118.225,0
-0.192,-0.173,0.162,32.654,245.972,-120.789,0
-0.305,-0.144,0.175,15.076,249.207,-111.877,0
-0.344,-0.232,0.171,-6.287,237.427,-96.924,0
-0.355,-0.365,0.166,-20.203,210.388,-74.585,0
-0.386,-0.499,0.132,-18.799,182.922,-45.41,0
-0.33,-0.544,0.118,-9.705,158.813,-12.756,0
-0.344,-0.529,0.064,0.732,129.517,20.203,0
-0.281,-0.499,0.083,7.324,124.512,58.105,0
-0.253,-0.595,0.166,9.216,128.113,100.464,0
-0.273,-0.8,0.271,26.55,128.235,140.93,0
-0.207,-0.667,0.129,59.509,128.418,165.71,0
-0.213,-0.522,-0.047,72.266,127.197,181.763,0
-0.172,-0.595,-0.151,83.008,122.314,203.308,1
-0.12,-0.395,-0.215,93.323,115.173,225.83,1
0.008,-0.317,-0.296,91.309,83.496,234.192,1
0.337,-0.181,-0.376,91.98,37.842,233.398,1
0.709,0.084,-0.408,96.497,0.916,229.797,1
1.095,0.251,-0.454,98.022,-30.09,233.276,1
1.565,0.602,-0.449,86.487,-52.307,213.257,1
1.976,0.677,-0.411,68.726,-50.598,196.228,1
2.27,0.892,-0.342,50.659,-28.748,154.236,1
2.48,1.099,-0.262,31.494,-7.812,115.051,1
2.527,1.055,-0.215,5.554,19.47,94.116,1
2.401,0.942,-0.133,-16.174,51.208,78.369,1
2.166,0.726,-0.057,-25.757,67.078,66.772,1
1.928,0.551,-0.026,-20.691,52.063,52.795,1
1.781,0.44,-0.004,-5.798,20.996,35.4,1
1.655,0.3,0.003,9.521,-10.071,23.621,1
1.529,0.233,-0.007,22.095,-36.499,12.878,1
1.452,0.219,-0.046,29.785,-50.964,11.292,1
1.35,0.091,-0.049,28.32,-51.025,11.414,1
-0.12,1.619,-1.177,506.592,0.854,70.129,0
0.023,1.735,-1.341,467.102,-76.294,42.419,0
0.196,1.76,-1.48,431.458,-138.245,15.32,0
0.347,1.772,-1.569,402.466,-178.284,-11.658,0
0.521,1.766,-1.574,380.493,-207.214,-42.48,0
0.566,1.823,-1.522,361.755,-228.21,-79.163,0
0.658,1.833,-1.425,338.074,-246.46,-118.103,0
0.76,1.817,-1.363,315.674,-264.16,-152.832,0
0.802,1.799,-1.315,298.767,-274.231,-178.65,0
0.83,1.791,-1.237,280.457,-275.146,-198.669,0
0.84,1.712,-1.139,252.563,-270.63,-216.797,0
0.793,1.583,-1.034,223.145,-264.404,-236.145,0
0.743,1.424,-0.923,199.951,-262.268,-257.141,0
0.799,1.445,-0.875,182.556,-268.982,-283.936,0
0.645,1.194,-0.771,168.457,-278.076,-293.274,0
0.716,1.034,-0.729,157.532,-291.87,-325.867,0
0.771,1.19,-0.682,158.63,-302.429,-341.736,0
0.685,0.974,-0.573,153.198,-310.303,-327.698,0
0.77,0.853,-0.487,142.7,-310.974,-357.117,0
0.774,0.863,-0.434,141.052,-300.537,-390.198,0
0.729,0.808,-0.404,135.193,-287.231,-409.302,0
0.641,0.749,-0.4,122.925,-280.762,-417.236,0
0.644,0.67,-0.422,105.835,-281.006,-426.208,0
0.561,0.594,-0.429,91.614,-278.809,-428.589,0
0.514,0.547,-0.412,74.829,-274.78,-429.871,0
0.424,0.509,-0.373,52.673,-273.193,-431.641,0
0.309,0.421,-0.31,26.123,-272.156,-435.608,0
0.179,0.357,-0.252,0.061,-276.062,-438.66,0
0.145,0.183,-0.208,-23.437,-285.217,-443.176,0
0.027,0.072,-0.189,-38.635,-299.194,-457.886,0
-0.035,0.014,-0.164,-44.189,-323.059,-466.003,0
-0.113,-0.029,-0.141,-50.171,-353.577,-464.111,0
-0.143,-0.069,-0.072,-60.547,-377.808,-457.092,0
-0.2,-0.104,-0.008,-72.571,-401.611,-450.928,0
-0.231,-0.119,0.034,-83.13,-422.974,-445.496,0
-0.225,-0.096,0.066,-93.323,-444.641,-440.857,0
-0.228,-0.083,0.098,-105.225,-462.341,-435.791,0
-0.27,-0.045,0.145,-118.958,-474.609,-430.237,0
-0.201,0.026,0.135,-137.939,-480.408,-417.725,0
-0.093,0.14,0.069,-167.786,-482.056,-405.151,0
-0.018,0.247,0.107,-213.196,-470.093,-399.048,0
0.003,0.348,0.188,-262.756,-432.739,-395.447,0
-0.016,0.465,0.259,-307.251,-369.507,-390.747,0
-0.115,0.542,0.382,-349.426,-294.006,-383.301,0
-0.295,0.582,0.642,-386.597,-217.651,-369.324,0
-0.52,0.557,0.983,-416.382,-142.029,-342.651,0
-0.787,0.476,1.366,-434.143,-78.491,-297.546,0
-0.877,0.321,1.701,-429.077,-42.725,-239.807,0
-0.887,0.157,1.883,-385.498,-54.382,-189.087,0
-0.818,0.131,1.993,-311.157,-89.05,-142.7,0
-0.708,0.403,2.006,-221.924,-105.225,-98.206,0
-0.621,0.843,2.065,-154.968,-97.656,-66.711,0
-0.585,1.008,2.211,-126.526,-64.514,-58.167,0
-0.588,1.072,2.319,-111.755,-24.17,-67.749,0
-0.463,1.064,2.464,-82.947,28.809,-68.848,0
-0.348,1.102,2.547,-51.086,86.853,-80.139,0
-0.225,0.989,2.532,-27.344,156.799,-80.566,0
-0.165,0.76,2.485,-6.897,211.853,-83.435,0
-0.036,0.583,2.372,25.635,246.643,-82.581,0
0.076,0.563,2.202,67.627,274.17,-81.36,0
0.259,0.47,2.032,104.065,289.734,-84.595,0
0.404,0.433,1.926,136.963,305.969,-103.943,0
0.438,0.601,1.839,161.865,328.186,-125.305,0
0.409,0.668,1.753,163.147,350.708,-139.893,0
0.447,0.556,1.64,147.766,358.643,-158.569,0
0.544,0.432,1.486,138.428,355.347,-176.025,0
0.591,0.333,1.315,139.709,354.553,-184.448,0
0.614,0.302,1.183,147.705,364.075,-185.974,0
0.696,0.333,1.051,153.198,377.869,-191.101,0
0.562,0.327,0.97,149.475,395.996,-194.519,0
0.505,0.372,0.841,138.489,406.616,-198.12,0
0.462,0.345,0.707,122.986,409.058,-196.045,0
0.415,0.323,0.593,98.389,409.912,-206.421,0
0.407,0.31,0.483,70.251,407.471,-220.276,0
0.312,0.321,0.403,41.565,401.062,-230.103,0
0.25,0.259,0.342,10.437,391.418,-237.793,0
0.213,0.122,0.329,-20.142,374.817,-251.343,0
0.13,0.028,0.313,-36.499,355.652,-261.536,0
0.091,-0.044,0.318,-42.969,333.191,-267.517,0
0.048,-0.122,0.325,-42.969,311.584,-269.836,0
-0.077,-0.193,0.296,-36.255,287.903,-263.062,0
-0.217,-0.283,0.384,-27.1,259.094,-250.488,0
-0.193,-0.376,0.334,-12.329,237,-230.591,0
-0.408,-0.361,0.209,3.357,215.332,-194.641,0
-0.419,-0.477,0.178,11.841,187.317,-151.794,0
-0.499,-0.531,0.179,22.278,163.086,-102.966,0
-0.462,-0.507,0.128,34.485,131.165,-53.65,0
-0.56,-0.523,0.074,41.687,110.901,-7.69,0
-0.52,-0.545,0.069,50.903,103.455,59.814,0
-0.3,-1.078,0.011,57.129,99.67,88.257,0
-0.104,-0.66,0.158,79.407,116.943,18.066,0
-0.381,-0.698,-0.014,111.511,98.755,53.406,1
-0.321,-0.191,-0.076,105.225,126.831,50.232,1
-0.276,-0.311,-0.276,89.111,134.888,130.249,1
0.014,-0.408,-0.361,61.401,136.719,177.368,1
0.229,-0.066,-0.459,61.584,145.752,193.481,1
0.489,-0.02,-0.48,38.391,134.338,208.435,1
0.812,0.233,-0.482,17.883,105.408,208.618,1
1.467,0.181,-0.434,13.611,63.171,219.055,1
1.95,0.429,-0.405,24.475,34.668,176.636,1
2.369,0.636,-0.452,41.87,19.775,148.865,1
2.529,0.906,-0.418,47.119,29.541,128.967,1
2.564,0.788,-0.384,45.288,25.879,123.291,1
2.456,0.714,-0.365,39.307,18.066,85.022,1
2.211,0.731,-0.341,36.743,7.385,35.034,1
1.936,0.468,-0.323,23.132,-6.165,3.662,1
1.689,0.319,-0.284,13.672,-12.085,-20.874,1
1.423,0.155,-0.233,7.996,-15.747,-41.26,1
1.2,-0.04,-0.195,1.587,-25.33,-59.265,1
1.068,-0.032,-0.163,0.61,-33.691,-66.345,1
0.947,-0.213,-0.143,1.282,-38.391,-49.805,1
0.862,-0.183,-0.12,3.723,-40.771,-37.476,1
0.796,-0.268,-0.106,5.371,-39.246,-19.409,1
0.752,-0.31,-0.11,5.798,-37.964,-9.766,1
0.718,-0.272,-0.105,7.08,-35.522,-7.385,1
0.759,-0.157,-0.121,8.423,-31.616,-4.517,1
0.641,-0.391,-0.083,7.08,-23.499,14.587,1
0.699,-0.231,-0.101,5.005,-20.63,8.423,1
0.736,-0.339,-0.091,7.874,-13.062,19.043,1
-0.198,1.124,-1.544,334.961,0.427,-64.636,0
-0.121,1.243,-1.809,312.012,-48.767,-75.989,0
-0.066,1.327,-2.144,288.818,-94.788,-69.58,0
-0.005,1.438,-2.472,269.043,-124.634,-56.274,0
0.05,1.507,-2.684,246.948,-142.822,-45.471,0
0.094,1.486,-2.739,223.206,-161.56,-41.809,0
0.106,1.533,-2.666,210.51,-192.139,-46.021,0
0.156,1.544,-2.508,195.129,-236.816,-57.922,0
0.248,1.559,-2.326,169.434,-286.255,-69.946,0
0.352,1.512,-2.157,139.771,-329.712,-78.735,0
0.446,1.467,-1.973,105.896,-360.962,-87.585,0
0.47,1.359,-1.778,65.002,-378.784,-97.839,0
0.454,1.25,-1.6,28.198,-388.916,-109.924,0
0.411,1.129,-1.427,-2.197,-395.264,-125.793,0
0.369,0.988,-1.302,-27.832,-398.682,-144.287,0
0.464,0.99,-1.189,-39.856,-393.494,-145.203,0
0.275,0.84,-1.03,-54.443,-388.672,-146.423,0
0.424,0.717,-0.972,-66.589,-384.888,-171.692,0
0.198,0.801,-0.792,-62.927,-372.131,-165.649,0
0.205,0.668,-0.649,-59.875,-380.432,-133.545,0
0.192,0.54,-0.584,-65.369,-381.348,-143.555,0
0.211,0.515,-0.534,-69.641,-380.981,-174.805,0
0.173,0.514,-0.463,-70.679,-384.705,-196.594,0
0.159,0.486,-0.397,-79.224,-390.93,-215.576,0
0.15,0.44,-0.343,-92.773,-396.179,-229.187,0
0.088,0.368,-0.287,-107.544,-401.123,-239.624,0
0.015,0.304,-0.203,-120.361,-407.898,-246.521,0
-0.032,0.225,-0.119,-131.775,-418.335,-248.596,0
-0.072,0.132,-0.071,-138.489,-431.702,-249.451,0
-0.048,0.035,-0.039,-139.832,-447.51,-248.047,0
-0.161,-0.032,0.042,-136.108,-467.529,-249.634,0
-0.201,-0.099,0.11,-125.183,-485.046,-248.962,0
-0.214,-0.122,0.193,-112.671,-501.587,-248.474,0
-0.145,-0.083,0.23,-98.694,-507.751,-242.798,0
-0.228,-0.042,0.328,-93.018,-517.212,-242.126,0
-0.264,-0.049,0.391,-94.849,-520.996,-237.793,0
-0.26,-0.041,0.496,-101.624,-528.198,-230.591,0
-0.257,-0.079,0.541,-107.117,-538.696,-222.717,0
-0.145,-0.129,0.505,-105.469,-549.255,-214.539,0
-0.016,-0.11,0.476,-99.609,-553.345,-210.571,0
0.032,-0.017,0.436,-98.389,-542.542,-213.196,0
-0.03,0.067,0.42,-112.061,-519.958,-217.163,0
-0.043,0.095,0.423,-138.672,-492.981,-216.309,0
-0.039,0.074,0.384,-168.762,-460.754,-212.585,0
-0.155,0.107,0.429,-192.078,-421.448,-206.482,0
-0.242,0.149,0.606,-212.036,-383.179,-196.045,0
-0.294,0.08,0.771,-227.417,-348.45,-184.998,0
-0.353,0.055,0.927,-230.164,-319.397,-174.438,0
-0.37,0.058,1.137,-226.379,-283.63,-155.823,0
-0.406,0.129,1.313,-221.375,-252.686,-140.259,0
-0.409,0.207,1.469,-215.088,-232.361,-109.68,0
-0.357,0.274,1.614,-206.055,-221.985,-80.078,0
-0.296,0.363,1.764,-192.139,-206.116,-59.021,0
-0.333,0.436,1.886,-181.458,-180.054,-49.072,0
-0.311,0.502,2.06,-171.448,-156.433,-46.57,0
-0.308,0.582,2.202,-157.715,-125.671,-53.284,0
-0.22,0.687,2.331,-136.414,-77.698,-59.814,0
-0.185,0.726,2.484,-112.732,-14.038,-66.04,0
-0.248,0.728,2.573,-85.51,51.758,-69.336,0
-0.24,0.732,2.611,-53.528,98.083,-66.833,0
-0.155,0.686,2.546,-20.386,124.756,-64.209,0
0.006,0.559,2.414,12.695,141.968,-61.218,0
0.126,0.518,2.197,46.326,163.635,-57.922,0
0.322,0.489,1.999,72.693,188.721,-55.847,0
0.45,0.447,1.864,86.548,217.59,-58.777,0
0.523,0.479,1.755,93.384,249.146,-70.068,0
0.59,0.483,1.679,95.947,289.734,-90.088,0
0.572,0.499,1.55,92.896,330.322,-118.347,0
0.573,0.471,1.426,85.083,365.784,-146.667,0
0.585,0.384,1.309,78.552,385.681,-167.725,0
0.631,0.253,1.206,78.491,403.625,-191.162,0
0.576,0.316,1.124,85.266,424.011,-221.13,0
0.514,0.421,1.026,89.661,440.735,-240.723,0
0.437,0.414,0.941,80.994,446.289,-259.033,0
0.331,0.45,0.856,67.261,445.923,-271.24,0
0.23,0.436,0.762,50.11,437.622,-273.254,0
0.187,0.362,0.67,29.48,419.739,-267.151,0
0.072,0.188,0.609,11.719,397.461,-251.038,0
-0.004,0.08,0.553,2.014,370.728,-234.924,0
-0.104,0.058,0.49,-2.38,341.431,-219.788,0
-0.175,0,0.406,-4.211,307.739,-200.012,0
-0.105,-0.045,0.416,-1.465,269.775,-184.937,0
-0.137,-0.072,0.427,3.357,237.244,-171.021,0
-0.097,-0.131,0.317,10.01,208.191,-160.278,0
-0.049,-0.159,0.223,16.052,183.777,-155.518,0
-0.122,-0.153,0.333,24.658,176.086,-146.118,0
-0.162,-0.241,0.33,35.034,187.012,-126.709,0
-0.343,-0.135,0.154,42.236,181.519,-101.379,0
-0.353,-0.179,0.103,28.87,171.57,-88.501,0
-0.206,-0.31,0.063,23.01,174.133,-50.781,0
-0.063,-0.477,0.106,13.855,190.125,-49.927,0
-0.233,-0.551,0.113,27.527,203.613,-42.969,0
-0.308,-0.434,0.043,55.542,205.811,-18.921,0
-0.175,-0.319,0.094,70.862,202.026,15.808,0
-0.282,-0.476,0,72.815,196.533,37.292,0
-0.387,-0.388,0.02,81.909,199.341,39.673,0
-0.357,-0.204,-0.137,94.36,163.391,80.505,0
-0.175,-0.081,-0.297,90.82,134.399,142.883,0
0.047,-0.153,-0.376,76.111,105.774,190.857,0
0.324,-0.187,-0.441,68.909,73.975,208.13,1
0.599,0.108,-0.492,66.162,53.833,195.923,1
0.93,0.27,-0.484,55.786,40.466,201.965,1
1.276,0.275,-0.448,40.039,27.771,207.336,1
1.669,0.403,-0.458,42.48,9.399,199.28,1
1.963,0.631,-0.46,56.03,2.563,175.171,1
2.099,0.775,-0.46,63.721,2.808,146.423,1
2.167,0.827,-0.444,65.613,2.075,110.229,1
2.2,0.87,-0.419,57.251,-4.15,57.373,1
2.158,0.891,-0.373,36.438,-8.545,6.348,1
2.024,0.78,-0.336,16.479,-9.094,-0.244,1
1.846,0.514,-0.255,0.488,-7.812,14.404,1
1.649,0.303,-0.189,-5.676,-7.202,13,1
1.464,0.227,-0.166,1.465,-9.033,5.615,1
1.308,0.101,-0.219,8.667,-13.733,3.052,1
1.14,0.091,-0.125,13.733,-11.23,27.283,1
1.106,-0.117,-0.143,3.967,-25.635,9.216,1
0.985,0.195,-0.193,14.221,-31.433,-14.038,1
1.015,0.075,-0.147,14.587,-33.997,20.874,1
0.985,-0.015,-0.139,2.075,-28.564,26.367,1
