aX,aY,aZ,gX,gY,gZ,ts
1.849,0.757,-0.476,56.946,-70.679,-55.969,0
1.988,0.802,-0.501,58.472,-94.91,-75.073,0
2.134,0.821,-0.481,57.007,-113.953,-94.116,0
2.219,0.784,-0.413,52.673,-122.742,-114.197,0
2.293,0.733,-0.348,54.077,-124.268,-132.629,0
2.349,0.718,-0.301,65.369,-121.094,-147.4,0
2.342,0.707,-0.304,82.825,-118.835,-158.875,0
2.297,0.714,-0.321,98.877,-118.347,-170.471,0
2.205,0.714,-0.303,106.75,-118.408,-187.622,0
2.171,0.731,-0.305,105.774,-113.281,-208.435,0
2.046,0.719,-0.268,96.924,-95.032,-230.347,0
1.81,0.661,-0.212,85.632,-68.237,-251.343,0
1.559,0.595,-0.153,80.078,-43.457,-264.526,0
1.353,0.56,-0.131,81.116,-25.818,-271.179,0
1.125,0.511,-0.16,81.726,-9.766,-275.024,0
0.917,0.459,-0.24,78.43,3.54,-277.405,0
0.65,0.404,-0.28,71.777,10.254,-284.729,0
0.502,0.351,-0.338,63.843,8.911,-290.1,0
0.351,0.326,-0.391,55.786,3.845,-293.457,0
0.222,0.294,-0.421,46.631,-1.404,-292.969,0
0.148,0.259,-0.449,36.621,-5.249,-289.673,0
-0.574,0.223,-0.54,25.574,-10.376,-285.706,0
0.603,0.131,-0.366,15.869,-33.081,-280.823,0
0.254,0.132,-0.702,2.014,-60.486,-265.991,0
-0.175,0.212,-0.418,0.061,-14.343,-247.498,0
-0.177,-0.029,-0.5,-10.803,-31.921,-237.427,0
-0.064,-0.012,-0.54,-23.071,-45.044,-255.127,0
-0.079,0.004,-0.557,-29.236,-41.138,-227.234,0
-0.061,-0.055,-0.554,-47.18,-33.081,-220.032,0
-0.143,-0.106,-0.543,-68.604,-24.963,-229.736,0
-0.234,-0.054,-0.49,-83.801,-17.639,-228.638,0
-0.233,-0.089,-0.446,-100.952,-15.32,-214.661,0
-0.22,-0.175,-0.407,-112.427,-11.536,-193.176,0
-0.324,-0.101,-0.347,-114.075,-6.287,-175.354,0
-0.287,-0.13,-0.347,-116.577,0.671,-140.442,1
-0.114,-0.241,-0.305,-131.165,11.169,-137.329,1
-0.273,-0.114,-0.271,-137.817,22.339,-147.095,1
-0.364,-0.124,-0.224,-144.47,25.879,-136.719,1
-0.356,-0.165,-0.164,-153.442,19.714,-123.901,1
-0.372,-0.188,-0.099,-157.715,10.925,-107.117,1
-0.386,-0.21,-0.062,-159.851,2.869,-85.876,1
-0.356,-0.244,-0.045,-162.964,-7.507,-68.359,1
-0.345,-0.193,-0.016,-166.748,-17.212,-56.396,1
-0.308,-0.191,0.045,-175.293,-26.611,-45.776,1
-0.341,-0.187,0.121,-186.462,-32.288,-38.879,1
-0.344,-0.167,0.226,-197.632,-36.255,-33.081,1
-0.316,-0.118,0.331,-210.388,-41.992,-28.687,1
-0.306,-0.104,0.461,-224.731,-48.462,-22.705,1
-0.27,-0.111,0.605,-235.718,-52.917,-15.32,1
-0.258,-0.125,0.737,-238.159,-50.232,-4.395,1
-0.202,-0.115,0.835,-231.567,-40.344,15.076,1
-0.172,-0.088,0.923,-218.811,-26.184,42.358,1
-0.103,-0.058,1.022,-205.627,-9.888,68.726,1
-0.126,-0.047,1.097,-195.068,2.869,89.539,1
-0.101,-0.041,1.174,-184.143,12.085,107.849,1
-0.089,-0.003,1.227,-170.776,16.113,125.183,1
-0.077,0.036,1.276,-158.752,14.465,139.16,1
-0.067,0.085,1.353,-148.01,7.812,151.428,1
-0.05,0.126,1.443,-138,-3.845,163.879,1
-0.001,0.138,1.508,-128.479,-15.259,176.086,1
0.102,0.149,1.552,-116.577,-23.987,186.462,1
0.11,0.141,1.602,-101.501,-25.696,197.083,1
0.129,0.182,1.64,-84.534,-26.489,204.834,1
0.136,0.18,1.688,-66.04,-28.87,212.708,1
0.169,0.218,1.738,-47.302,-30.823,213.623,1
0.245,0.245,1.764,-28.198,-34.546,222.961,1
0.243,0.214,1.748,-9.399,-38.635,243.896,1
0.341,0.207,1.666,4.639,-44.495,231.567,1
0.247,0.497,1.741,19.165,-40.405,242.92,1
0.401,0.167,1.684,18.127,-59.326,274.231,1
0.289,0.264,1.7,23.926,-52.979,262.512,1
0.276,0.139,1.715,42.664,-62.317,241.333,1
0.302,0.122,1.66,60.913,-74.219,212.341,1
0.34,0.402,1.744,77.271,-104.065,205.75,1
0.633,0.287,1.709,65.369,-81.665,258.972,1
0.502,0.259,1.704,65.735,-81.116,261.292,1
0.509,0.221,1.647,73.669,-80.322,252.869,1
0.567,0.317,1.719,85.693,-68.726,232.788,1
0.534,0.46,1.624,89.844,-86.121,239.563,1
0.681,0.38,1.584,78.369,-76.477,252.258,1
0.601,0.436,1.619,77.393,-61.035,266.785,1
0.63,0.253,1.597,84.412,-68.726,280.151,1
0.826,0.389,1.516,102.051,-78.674,263.672,1
0.987,0.453,1.431,117.065,-69.153,252.747,1
0.987,0.404,1.326,121.704,-52.856,242.615,1
0.98,0.426,1.235,128.723,-35.095,226.929,1
0.849,0.487,1.169,132.385,-26.245,218.506,1
0.799,0.274,1.148,127.136,-34.729,204.59,1
0.744,0.354,1.076,130.432,-59.265,179.626,1
0.73,0.272,1.009,131.47,-78.979,169.006,1
0.648,0.276,0.934,131.958,-95.215,153.687,1
0.626,0.335,0.883,133.972,-110.352,143.311,1
0.699,0.331,0.853,132.812,-121.399,135.925,1
0.799,0.424,0.806,132.08,-125.183,131.042,1
0.947,0.494,0.734,124.39,-113.77,134.46,1
1.037,0.489,0.653,108.398,-83.862,140.442,1
1.038,0.495,0.587,93.567,-42.969,143.86,1
1.03,0.492,0.513,76.538,-8.667,146.484,1
1.039,0.419,0.482,56.03,24.353,143.433,1
0.967,0.37,0.466,39.124,49.866,131.287,1
0.881,0.287,0.472,25.085,64.148,115.417,1
0.814,0.244,0.487,17.334,69.031,100.83,1
0.743,0.213,0.512,11.475,62.744,83.679,1
0.728,0.13,0.535,7.507,49.805,68.115,1
0.667,0.152,0.535,7.08,36.56,52.673,1
0.624,0.099,0.564,5.615,24.414,39.368,1
0.581,0.099,0.573,4.639,10.986,27.588,1
0.544,0.102,0.607,2.258,0,17.883,1
0.498,0.076,0.647,-2.869,-8.24,9.705,1
0.464,0.044,0.699,-6.226,-13.611,2.563,1
0.439,0.022,0.739,-7.446,-14.282,-2.625,1
0.401,0.032,0.783,-9.094,-11.78,-7.263,1
0.357,0.017,0.81,-11.841,-7.935,-10.498,1
0.32,-0.01,0.839,-14.282,-3.54,-12.146,1
0.282,-0.032,0.864,-14.893,0.061,-13.123,1
0.255,-0.055,0.88,-14.526,-1.038,-15.076,1
0.236,-0.041,0.886,-13.062,-4.883,-16.479,1
0.232,-0.067,0.91,-12.573,-5.188,-16.418,1
0.2,-0.078,0.932,-12.207,-5.249,-17.517,1
1.668,0.646,-0.425,62.5,-44.678,-45.41,0
1.698,0.68,-0.442,62.073,-47.058,-60.669,0
1.663,0.665,-0.408,57.068,-52.49,-76.294,0
1.651,0.652,-0.363,54.688,-66.04,-89.417,0
1.681,0.615,-0.329,59.265,-83.13,-99.304,0
1.732,0.596,-0.309,71.838,-100.342,-107.3,0
1.827,0.609,-0.325,89.539,-114.38,-114.746,0
1.874,0.628,-0.297,105.042,-126.343,-124.329,0
1.926,0.648,-0.286,117.615,-136.353,-136.78,0
1.951,0.66,-0.282,124.756,-140.198,-153.442,0
1.907,0.656,-0.256,123.047,-134.583,-174.622,0
1.848,0.615,-0.262,115.601,-121.277,-196.35,0
1.72,0.576,-0.274,104.736,-101.868,-214.661,0
1.548,0.497,-0.259,91.919,-79.041,-227.112,0
1.408,0.441,-0.238,83.191,-56.58,-231.995,0
1.303,0.393,-0.217,79.773,-37.476,-231.75,0
1.18,0.366,-0.203,79.102,-19.958,-231.323,0
1.079,0.355,-0.221,76.355,-4.883,-232.666,0
0.913,0.341,-0.205,70.923,7.874,-235.474,0
0.818,0.266,-0.227,63.904,12.695,-239.563,0
0.711,0.236,-0.232,58.35,11.841,-243.408,0
0.585,0.183,-0.237,53.223,8.24,-247.253,0
0.533,0.126,-0.259,49.683,-0.061,-250.916,0
0.483,0.124,-0.295,45.593,-7.019,-254.395,0
0.431,0.077,-0.286,37.231,-8.606,-257.08,0
0.377,0.067,-0.301,30.029,-5.859,-257.324,0
0.125,0.068,-0.032,25.696,-3.906,-256.836,0
0.579,-0.125,-0.353,20.325,-36.865,-257.141,0
0.424,-0.026,-0.432,14.343,3.296,-212.708,0
0.139,0.031,-0.406,-3.479,29.602,-219.482,0
0.059,-0.115,-0.442,-20.203,17.639,-220.276,0
0.036,-0.129,-0.479,-38.94,5.005,-239.38,0
0.043,-0.065,-0.504,-50.659,-6.409,-221.619,1
-0.034,-0.155,-0.554,-70.251,-17.029,-200.012,1
-0.141,-0.118,-0.486,-95.642,-31.494,-205.2,1
0.047,-0.178,-0.467,-112.488,-52.49,-173.889,1
-0.15,-0.246,-0.371,-127.686,-56.946,-166.748,1
-0.005,-0.23,-0.299,-134.888,-46.448,-197.693,1
-0.019,-0.294,-0.296,-136.902,-25.391,-225.83,1
-0.18,-0.192,-0.259,-127.686,-0.916,-225.525,1
-0.284,-0.162,-0.223,-124.39,12.207,-193.42,1
-0.292,-0.218,-0.192,-128.967,14.832,-159.363,1
-0.315,-0.231,-0.194,-131.897,11.597,-141.846,1
-0.407,-0.187,-0.159,-133.911,3.296,-125.549,1
-0.453,-0.166,-0.159,-141.296,-15.747,-107.117,1
-0.432,-0.224,-0.082,-156.189,-38.696,-97.412,1
-0.477,-0.202,-0.043,-169.556,-60.425,-101.318,1
-0.483,-0.184,0.036,-178.894,-75.5,-93.628,1
-0.461,-0.227,0.096,-184.753,-84.229,-78.003,1
-0.455,-0.235,0.203,-181.824,-86.914,-58.472,1
-0.462,-0.261,0.321,-173.157,-84.29,-34.302,1
-0.437,-0.267,0.408,-161.133,-78.491,-11.414,1
-0.406,-0.234,0.463,-149.902,-67.688,7.996,1
-0.45,-0.186,0.498,-147.339,-52.795,25.024,1
-0.45,-0.106,0.557,-154.358,-41.748,41.077,1
-0.448,-0.079,0.68,-171.997,-38.696,53.223,1
-0.408,-0.101,0.829,-194.885,-36.011,59.143,1
-0.379,-0.121,0.995,-210.632,-34.424,62.073,1
-0.39,-0.104,1.128,-210.022,-33.63,70.496,1
-0.373,-0.13,1.243,-197.693,-36.499,85.144,1
-0.384,-0.122,1.359,-174.255,-46.448,103.577,1
-0.383,-0.078,1.403,-144.043,-62.988,128.784,1
-0.301,-0.054,1.435,-116.943,-74.829,152.588,1
-0.167,0.124,1.443,-94.91,-81.36,173.767,1
-0.094,0.017,1.456,-82.336,-82.52,213.074,1
0.021,0.108,1.455,-81.848,-81.848,204.773,1
0.043,0.1,1.461,-82.214,-64.575,207.825,1
-0.025,0.105,1.504,-86.67,-46.143,206.36,1
0.076,-0.031,1.526,-84.595,-33.936,202.148,1
-0.009,0.135,1.599,-81.116,-23.743,184.875,1
0.065,0.106,1.581,-72.51,-29.358,216.431,1
0.137,0.129,1.622,-60.364,-43.823,253.174,1
0.155,-0.018,1.648,-41.687,-41.626,265.198,1
0.093,0.109,1.655,-13.306,-52.856,259.521,1
0.155,0.149,1.655,12.085,-68.726,263.672,1
0.216,0.238,1.622,25.208,-91.98,263.672,1
0.264,0.241,1.639,27.649,-106.14,262.024,1
0.337,0.187,1.662,26.611,-114.807,259.155,1
0.338,0.323,1.675,27.71,-114.99,251.831,1
0.352,0.29,1.68,24.353,-111.816,254.761,1
0.323,0.138,1.702,21.301,-110.229,262.512,1
0.402,0.099,1.712,31.189,-112.427,234.497,1
0.294,0.354,1.69,46.753,-112.488,214.661,1
0.351,0.272,1.713,50.964,-107.91,230.103,1
0.302,0.213,1.702,55.603,-114.319,251.221,1
0.278,0.261,1.705,64.697,-127.808,243.53,1
0.328,0.3,1.687,74.524,-134.766,242.859,1
0.467,0.317,1.643,81.055,-132.019,243.774,1
0.612,0.439,1.548,86.243,-117.981,246.826,1
0.602,0.411,1.492,82.214,-92.468,260.62,1
0.622,0.333,1.464,75.989,-74.341,255.981,1
0.629,0.447,1.41,76.843,-66.65,246.094,1
0.631,0.379,1.358,72.51,-55.176,246.338,1
0.598,0.318,1.296,72.205,-44.8,242.432,1
0.583,0.321,1.253,78.796,-43.518,229.614,1
0.574,0.325,1.167,84.351,-54.382,215.698,1
0.682,0.348,1.125,87.708,-60.974,203.979,1
0.718,0.362,0.981,87.952,-64.209,186.829,1
0.725,0.407,0.965,85.266,-59.753,175.781,1
0.852,0.343,0.896,77.637,-62.134,166.504,1
0.895,0.448,0.86,72.571,-41.016,156.921,1
0.862,0.391,0.801,59.448,-22.583,149.353,1
0.886,0.402,0.758,48.95,-8.911,143.799,1
0.94,0.421,0.705,34.241,8.179,134.705,1
0.884,0.273,0.732,16.541,33.386,121.887,1
0.796,0.338,0.708,5.737,46.997,103.76,1
0.764,0.25,0.735,-5.005,56.03,90.637,1
0.652,0.226,0.769,-11.719,52.124,74.524,1
0.639,0.201,0.788,-12.817,36.987,60.364,1
0.642,0.178,0.794,-12.756,23.132,46.692,1
0.606,0.17,0.816,-12.329,15.625,34.912,1
0.564,0.118,0.836,-10.01,10.437,23.865,1
0.517,0.098,0.871,-2.38,4.944,14.954,1
0.468,0.063,0.881,6.348,-0.916,6.653,1
0.443,0.072,0.868,15.198,-3.967,2.258,1
0.43,0.044,0.867,19.714,-1.587,0,1
0.405,0.041,0.864,20.386,2.38,-2.563,1
0.386,0.009,0.854,17.334,6.409,-5.676,1
0.353,0.01,0.834,12.512,11.169,-10.315,1
1.231,0.658,-0.763,37.659,-47.058,-47.668,0
1.299,0.653,-0.809,40.039,-63.171,-57.678,0
1.393,0.663,-0.858,45.959,-77.026,-64.758,0
1.479,0.7,-0.911,53.711,-84.656,-72.144,0
1.476,0.733,-0.922,57.312,-85.999,-81.543,0
1.468,0.741,-0.904,56.885,-83.74,-90.027,0
1.487,0.736,-0.889,53.894,-82.153,-98.389,0
1.504,0.748,-0.873,50.964,-84.229,-106.812,0
1.528,0.747,-0.836,48.523,-89.355,-115.417,0
1.525,0.711,-0.794,45.105,-96.741,-126.709,0
1.547,0.693,-0.761,43.701,-106.628,-140.015,0
1.516,0.685,-0.716,42.175,-114.502,-155.518,0
1.458,0.658,-0.635,36.438,-118.042,-171.204,0
1.423,0.598,-0.579,28.687,-117.065,-185.547,0
1.391,0.556,-0.525,23.499,-109.68,-197.998,0
1.275,0.498,-0.46,19.165,-97.473,-208.74,0
1.195,0.433,-0.429,18.372,-89.6,-216.98,0
1.094,0.385,-0.397,18.982,-85.938,-223.572,0
0.984,0.33,-0.354,18.066,-82.764,-228.577,0
0.877,0.276,-0.302,18.066,-80.994,-233.887,0
0.728,0.217,-0.244,22.339,-79.956,-235.718,0
0.655,0.169,-0.237,29.663,-78.552,-236.633,0
0.583,0.16,-0.254,35.461,-79.468,-238.464,0
0.491,0.111,-0.255,38.025,-80.75,-239.685,0
0.406,0.029,-0.27,38.025,-84.656,-243.774,0
0.351,0.028,-0.295,36.621,-90.881,-246.582,0
0.287,-0.021,-0.29,31.006,-94.238,-247.192,0
0.226,-0.078,-0.279,26.062,-96.13,-247.253,0
0.186,-0.106,-0.315,24.414,-99.426,-243.286,0
0.18,-0.136,-0.336,24.109,-101.99,-232.605,0
0.163,-0.169,-0.382,20.142,-105.225,-226.929,0
0.139,-0.202,-0.401,12.268,-108.215,-223.755,0
0.147,-0.228,-0.413,1.77,-109.619,-222.473,0
0.112,-0.24,-0.412,-10.742,-110.168,-223.083,0
0.068,-0.237,-0.401,-24.902,-111.694,-222.046,1
0.05,-0.284,-0.394,-39.246,-117.798,-221.985,1
0.045,-0.285,-0.368,-48.584,-126.038,-220.52,1
0.068,-0.278,-0.373,-57.617,-131.836,-222.534,1
0.096,-0.244,-0.344,-68.115,-128.601,-212.402,1
0.063,-0.285,-0.308,-80.2,-124.878,-197.815,1
0.053,-0.31,-0.267,-90.21,-119.324,-187.805,1
0.059,-0.329,-0.241,-97.534,-108.948,-180.176,1
0.029,-0.326,-0.198,-103.638,-95.276,-173.767,1
-0.048,-0.33,-0.158,-111.084,-83.862,-166.016,1
-0.1,-0.328,-0.115,-117.554,-76.477,-151.55,1
-0.109,-0.372,-0.067,-124.146,-73.303,-137.085,1
-0.126,-0.389,-0.037,-127.563,-74.585,-125.61,1
-0.146,-0.377,-0.008,-129.211,-77.026,-115.967,1
-0.183,-0.387,0.036,-132.812,-80.322,-108.215,1
-0.2,-0.389,0.079,-136.292,-85.754,-102.051,1
-0.211,-0.392,0.119,-140.381,-92.041,-97.351,1
-0.236,-0.372,0.165,-145.813,-98.022,-93.262,1
-0.241,-0.346,0.235,-153.748,-102.356,-89.417,1
-0.238,-0.346,0.309,-163.452,-102.966,-84.473,1
-0.238,-0.354,0.379,-171.936,-97.473,-77.637,1
-0.223,-0.344,0.453,-177.063,-85.449,-67.993,1
-0.229,-0.34,0.513,-181.396,-67.932,-56.091,1
-0.245,-0.327,0.583,-184.387,-47.363,-41.748,1
-0.274,-0.324,0.65,-186.035,-27.954,-24.963,1
-0.284,-0.289,0.747,-186.218,-12.695,-6.592,1
-0.299,-0.294,0.819,-186.401,-5.859,9.644,1
-0.308,-0.26,0.906,-184.265,-2.258,23.499,1
-0.353,-0.249,0.981,-181.763,-5.371,37.415,1
-0.352,-0.273,1.052,-175.842,-16.296,52.063,1
-0.319,-0.25,1.095,-164.734,-33.508,64.392,1
-0.312,-0.179,1.169,-152.1,-49.561,78.369,1
-0.278,-0.146,1.246,-143.616,-63.11,94.238,1
-0.177,-0.177,1.316,-136.536,-73.12,107.117,1
-0.15,-0.169,1.354,-126.343,-78.857,106.934,1
-0.123,-0.092,1.399,-114.014,-75.623,105.286,1
-0.08,-0.072,1.429,-106.384,-69.946,107.971,1
-0.062,-0.052,1.454,-100.647,-64.209,114.441,1
-0.091,-0.019,1.486,-96.375,-57.129,122.314,1
0,-0.09,1.586,-92.529,-52.368,132.324,1
-0.105,0.011,1.671,-88.684,-52.673,144.714,1
0.021,-0.093,1.673,-80.75,-63.721,147.095,1
-0.044,0.088,1.646,-69.031,-65.43,150.757,1
-0.091,0.069,1.719,-67.505,-68.115,164.246,1
-0.023,-0.016,1.745,-67.2,-88.074,174.133,1
-0.008,0.092,1.671,-59.021,-96.436,180.237,1
0.098,-0.109,1.741,-48.462,-89.294,190.002,1
0.101,0.01,1.674,-31.189,-92.041,180.542,1
0.152,0.096,1.666,-15.991,-82.764,194.275,1
0.169,-0.003,1.646,-15.076,-75.256,203.247,1
0.117,-0.024,1.66,-7.202,-67.322,205.2,1
0.109,0.045,1.6,3.601,-74.341,205.2,1
0.109,0.052,1.578,7.385,-75.745,209.717,1
0.078,0.031,1.543,7.263,-83.435,213.684,1
0.095,-0.012,1.51,10.803,-93.811,212.83,1
0.081,0.017,1.455,19.165,-102.173,211.304,1
0.176,0.081,1.383,28.87,-108.215,207.336,1
0.192,0.13,1.338,33.569,-104.919,216.309,1
0.214,0.025,1.278,30.884,-99.792,215.454,1
0.237,0.14,1.222,39.001,-90.332,209.717,1
0.185,0.233,1.173,38.879,-79.712,217.651,1
0.208,0.084,1.142,28.442,-72.327,219.849,1
0.181,0.159,1.104,28.625,-63.843,215.454,1
0.22,0.177,1.059,28.137,-56.274,214.355,1
0.25,0.179,1.017,25.635,-47.424,214.783,1
0.253,0.185,0.992,23.437,-37.964,209.961,1
0.257,0.23,0.97,21.606,-32.41,205.017,1
0.274,0.21,0.943,16.541,-29.175,203.613,1
0.305,0.187,0.916,13.855,-27.1,197.998,1
0.333,0.275,0.891,13.55,-24.048,196.838,1
0.382,0.227,0.886,7.385,-18.616,196.106,1
0.443,0.196,0.901,3.662,-13.855,186.951,1
0.545,0.332,0.887,2.991,-8.362,175.293,1
0.664,0.316,0.881,-4.517,2.686,175.232,1
0.752,0.246,0.892,-12.634,22.766,167.053,1
0.742,0.29,0.889,-12.512,41.443,158.447,1
0.741,0.271,0.898,-15.076,56.091,151.611,1
0.733,0.239,0.885,-18.921,62.012,144.653,1
0.724,0.219,0.884,-22.4,63.599,135.315,1
0.687,0.178,0.91,-25.146,60.059,124.207,1
0.708,0.135,0.875,-25.024,48.95,115.051,1
0.71,0.039,0.947,-20.508,48.096,96.741,1
0.612,0.095,0.909,-10.071,38.269,76.477,1
0.594,0.132,0.89,-3.052,29.358,58.716,1
0.578,0.114,0.863,-1.16,21.057,43.945,1
1.537,0.721,-0.542,61.34,-1.77,-56.946,0
1.613,0.744,-0.535,56.03,-7.996,-68.848,0
1.692,0.749,-0.562,53.04,-9.888,-81.177,0
1.697,0.753,-0.6,54.688,-9.705,-92.651,0
1.74,0.725,-0.657,59.57,-11.108,-104.248,0
1.748,0.716,-0.717,64.941,-16.907,-116.333,0
1.683,0.714,-0.714,64.575,-24.963,-130.371,0
1.634,0.678,-0.709,56.213,-34.302,-145.63,0
1.569,0.638,-0.663,44.373,-39.001,-159.363,0
1.534,0.583,-0.621,35.522,-39.001,-169.8,0
1.512,0.553,-0.616,31.372,-36.926,-177.551,0
1.457,0.524,-0.616,28.259,-35.095,-184.57,0
1.392,0.5,-0.6,21.851,-33.63,-193.054,0
1.245,0.44,-0.533,10.559,-30.457,-203.491,0
1.196,0.378,-0.477,2.075,-27.649,-211.426,0
1.082,0.324,-0.441,-1.343,-23.743,-216.309,0
0.985,0.26,-0.423,-1.953,-21.362,-218.384,0
0.959,0.251,-0.43,0.793,-20.874,-219.543,0
0.837,0.236,-0.398,-1.953,-17.395,-223.389,0
0.758,0.156,-0.372,-10.62,-12.329,-230.225,0
0.72,0.121,-0.404,-16.479,-13.672,-238.403,0
0.603,0.106,-0.367,-23.437,-13.245,-247.681,0
0.553,0.083,-0.355,-32.776,-10.681,-249.451,0
0.444,0.049,-0.34,-43.03,-10.071,-244.202,0
0.386,0.002,-0.307,-54.077,-13.611,-238.647,0
0.388,-0.052,-0.3,-59.692,-18.982,-233.093,0
0.319,-0.091,-0.3,-61.707,-20.63,-232.971,0
0.262,-0.136,-0.327,-61.584,-22.644,-230.408,0
0.18,-0.158,-0.318,-59.937,-24.414,-228.516,1
0.143,-0.213,-0.336,-58.289,-29.114,-224.731,1
0.04,-0.204,-0.327,-60.242,-37.231,-222.107,1
0.094,-0.248,-0.366,-67.2,-54.932,-219.604,1
0.094,-0.236,-0.367,-76.416,-69.031,-223.694,1
0.018,-0.219,-0.36,-83.618,-74.707,-214.966,1
0.064,-0.311,-0.302,-88.257,-80.505,-203.43,1
0.047,-0.34,-0.294,-86.487,-78.613,-203.247,1
-0.022,-0.309,-0.282,-81.299,-69.519,-201.294,1
-0.089,-0.308,-0.277,-77.209,-63.11,-188.843,1
-0.115,-0.323,-0.254,-74.097,-61.218,-171.204,1
-0.143,-0.307,-0.244,-73.181,-63.232,-155.457,1
-0.175,-0.344,-0.232,-75.928,-68.909,-144.226,1
-0.213,-0.317,-0.233,-79.712,-75.256,-137.512,1
-0.234,-0.297,-0.242,-89.844,-81.543,-134.827,1
-0.244,-0.319,-0.225,-105.164,-88.135,-133.85,1
-0.271,-0.322,-0.185,-118.835,-97.168,-129.822,1
-0.307,-0.33,-0.149,-131.165,-105.164,-127.197,1
-0.287,-0.308,-0.106,-140.93,-108.276,-121.46,1
-0.255,-0.358,-0.056,-148.01,-105.896,-109.802,1
-0.326,-0.337,0.001,-151.489,-95.703,-103.699,1
-0.395,-0.336,0.06,-149.414,-84.9,-80.383,1
-0.4,-0.364,0.108,-146.729,-78.43,-52.063,1
-0.405,-0.343,0.147,-142.09,-72.754,-27.1,1
-0.407,-0.326,0.174,-138.794,-66.528,-2.747,1
-0.392,-0.339,0.218,-139.526,-59.998,14.648,1
-0.383,-0.32,0.262,-139.893,-52.917,27.771,1
-0.394,-0.258,0.334,-141.785,-44.556,40.344,1
-0.395,-0.225,0.433,-149.231,-37.598,55.786,1
-0.349,-0.221,0.551,-157.104,-28.381,77.393,1
-0.322,-0.261,0.661,-161.255,-21.301,93.445,1
-0.274,-0.227,0.734,-159.18,-15.137,99.976,1
-0.255,-0.239,0.794,-152.893,-4.578,116.394,1
-0.211,-0.217,0.842,-144.348,1.404,127.747,1
-0.203,-0.152,0.892,-133.728,6.226,144.226,1
-0.166,-0.125,0.974,-125.793,8.301,165.1,1
-0.077,-0.082,1.055,-118.713,5.188,184.814,1
0.01,-0.035,1.12,-112,1.282,199.219,1
0.073,-0.012,1.182,-107.3,-0.183,206.848,1
0.106,0.009,1.223,-102.295,-1.099,211.731,1
0.113,0.023,1.264,-96.497,-4.639,215.759,1
0.147,0.036,1.302,-88.867,-12.085,219.116,1
0.216,0.042,1.351,-78.552,-23.01,222.229,1
0.288,0.063,1.382,-66.345,-33.752,223.938,1
0.362,0.091,1.394,-54.321,-42.236,224.06,1
0.421,0.115,1.408,-44.312,-46.692,224.67,1
0.472,0.123,1.422,-34.79,-47.363,225.769,1
0.493,0.128,1.437,-23.437,-46.265,227.783,1
0.513,0.164,1.425,-11.414,-47.852,230.591,1
0.453,0.063,1.462,-1.648,-51.27,238.586,1
0.744,0.222,1.332,7.141,-57.861,214.294,1
0.5,0.376,1.415,21.057,-42.358,232.91,1
0.743,0.305,1.407,8.667,-61.646,247.681,1
0.822,0.18,1.387,1.831,-64.636,268.555,1
0.871,-0.001,1.444,13.733,-50.11,270.203,1
0.85,0.142,1.371,29.602,-39.612,224.609,1
0.76,0.249,1.388,48.096,-28.931,207.214,1
0.765,0.265,1.369,55.664,-45.471,200.5,1
0.844,0.205,1.35,56.458,-55.725,190.43,1
0.901,0.325,1.336,61.584,-63.477,182.19,1
0.902,0.256,1.297,65.857,-62.866,191.65,1
0.873,0.239,1.293,71.045,-60.913,189.209,1
0.814,0.265,1.283,79.529,-63.232,187.927,1
0.795,0.212,1.291,85.632,-70.984,185.242,1
0.825,0.234,1.267,94.91,-82.703,177.307,1
0.906,0.296,1.251,103.638,-88.379,170.105,1
0.898,0.278,1.239,106.14,-84.045,167.969,1
0.9,0.286,1.218,106.018,-75.989,162.109,1
0.874,0.305,1.196,105.408,-66.772,158.02,1
0.825,0.274,1.18,103.76,-59.082,156.677,1
0.741,0.293,1.167,103.394,-56.03,156.25,1
0.678,0.244,1.144,103.088,-58.655,157.959,1
0.64,0.181,1.119,106.384,-64.514,151.489,1
0.608,0.228,1.085,115.784,-71.167,141.907,1
0.584,0.243,1.057,122.742,-78.796,135.132,1
0.556,0.276,1.019,125.183,-87.402,131.47,1
0.543,0.284,0.974,123.779,-94.604,132.141,1
0.541,0.246,0.917,120.422,-99.243,130.066,1
0.53,0.244,0.866,118.469,-100.098,122.009,1
0.512,0.284,0.813,115.54,-100.159,113.953,1
0.518,0.32,0.774,106.628,-99.548,108.643,1
0.613,0.342,0.741,92.529,-97.839,103.455,1
0.71,0.396,0.718,76.904,-87.83,100.22,1
0.807,0.425,0.685,59.937,-68.604,94.543,1
0.736,0.464,0.633,43.274,-44.25,101.929,1
0.757,0.414,0.659,22.583,-28.015,106.934,1
0.775,0.267,0.706,10.742,-18.127,104.492,1
0.749,0.424,0.699,8.972,-3.54,94.971,1
0.878,0.362,0.643,2.869,6.897,89.417,1
0.753,0.015,0.795,-3.601,23.376,89.722,1
0.611,0.384,0.543,-2.869,4.822,49.561,1
1.461,0.808,-0.531,50.842,-8.85,-41.138,0
1.465,0.842,-0.599,51.758,-21.79,-55.176,0
1.498,0.865,-0.615,48.584,-35.217,-69.824,0
1.502,0.859,-0.578,43.274,-50.293,-84.961,0
1.523,0.832,-0.527,37.659,-66.589,-100.22,0
1.551,0.812,-0.489,35.4,-78.918,-113.647,0
1.543,0.786,-0.46,37.231,-82.642,-124.573,0
1.548,0.76,-0.432,43.457,-81.36,-133.118,0
1.563,0.75,-0.454,52.002,-80.566,-140.869,0
1.569,0.755,-0.482,54.932,-78.247,-149.292,0
1.543,0.746,-0.474,49.744,-70.984,-160.583,0
1.486,0.726,-0.453,39.001,-60.791,-172.119,0
1.412,0.681,-0.411,26.611,-50.964,-184.509,0
1.36,0.638,-0.362,14.099,-40.771,-197.327,0
1.269,0.584,-0.294,4.272,-32.593,-208.069,0
1.175,0.521,-0.263,-0.61,-28.137,-216.492,0
1.102,0.486,-0.26,-0.793,-27.466,-222.9,0
0.98,0.418,-0.24,-0.854,-30.029,-229.492,0
0.882,0.347,-0.197,-1.16,-35.767,-235.291,0
0.795,0.269,-0.161,0.793,-43.762,-241.15,0
0.736,0.223,-0.205,6.897,-51.392,-248.23,0
0.668,0.208,-0.233,12.085,-54.138,-253.296,0
0.577,0.202,-0.241,13.306,-49.316,-254.639,0
0.555,0.138,-0.31,10.071,-40.649,-250.732,0
0.481,0.121,-0.336,4.028,-34.546,-242.615,0
0.427,0.088,-0.309,-7.507,-30.396,-236.45,0
0.408,0.019,-0.296,-20.203,-27.71,-229.614,0
0.324,-0.031,-0.259,-30.823,-24.17,-222.9,0
0.213,-0.078,-0.247,-38.879,-23.743,-218.506,0
0.18,-0.121,-0.268,-41.626,-26.917,-217.834,0
0.149,-0.157,-0.284,-41.26,-25.696,-218.445,0
0.121,-0.184,-0.31,-40.161,-25.024,-216.858,0
0.082,-0.202,-0.334,-41.931,-27.344,-211.975,1
0.039,-0.207,-0.35,-47.791,-32.166,-202.698,1
0.003,-0.236,-0.304,-58.96,-39.734,-193.848,1
-0.01,-0.298,-0.275,-70.618,-48.218,-186.035,1
-0.043,-0.304,-0.294,-79.712,-54.504,-184.631,1
0.009,-0.286,-0.269,-89.478,-58.472,-186.096,1
-0.079,-0.26,-0.237,-101.929,-59.387,-183.594,1
-0.053,-0.291,-0.199,-114.075,-62.317,-178.345,1
-0.087,-0.332,-0.141,-121.521,-61.951,-174.377,1
-0.117,-0.351,-0.097,-121.399,-59.326,-167.236,1
-0.148,-0.353,-0.057,-118.286,-54.688,-156.555,1
-0.189,-0.329,-0.034,-114.99,-51.392,-142.822,1
-0.257,-0.35,-0.005,-114.014,-56.213,-124.817,1
-0.22,-0.37,0.047,-114.685,-66.345,-107.422,1
-0.218,-0.404,0.071,-116.15,-78.979,-94.36,1
-0.255,-0.417,0.114,-119.446,-88.013,-91.431,1
-0.245,-0.396,0.153,-123.84,-92.773,-86.548,1
-0.175,-0.438,0.204,-131.714,-91.187,-81.909,1
-0.264,-0.367,0.263,-138.062,-83.74,-78.979,1
-0.297,-0.352,0.349,-143.372,-76.66,-58.533,1
-0.25,-0.399,0.445,-149.17,-72.51,-40.405,1
-0.271,-0.378,0.529,-148.682,-66.65,-27.832,1
-0.313,-0.369,0.618,-143.799,-60.12,-9.338,1
-0.285,-0.373,0.667,-135.62,-58.899,9.155,1
-0.273,-0.365,0.719,-125.854,-57.495,25.818,1
-0.229,-0.316,0.746,-116.394,-53.04,43.884,1
-0.176,-0.226,0.757,-110.291,-46.265,69.641,1
-0.12,-0.29,0.807,-114.197,-38.391,95.581,1
-0.101,-0.275,0.846,-119.995,-32.288,93.079,1
-0.055,-0.207,0.901,-123.962,-17.761,99.67,1
-0.033,-0.209,0.955,-132.324,-1.648,108.887,1
0.011,-0.208,0.995,-138.184,11.902,117.554,1
0.017,-0.203,1.063,-138.245,23.376,129.028,1
0.001,-0.19,1.132,-131.409,26.123,142.822,1
0.055,-0.167,1.177,-119.751,18.494,156.494,1
0.073,-0.167,1.218,-104.614,6.836,166.565,1
0.124,-0.106,1.263,-85.632,-8.728,175.415,1
0.211,-0.077,1.279,-69.031,-24.475,181.458,1
0.303,-0.015,1.294,-55.786,-33.264,185.242,1
0.337,0.028,1.332,-49.683,-35.217,187.195,1
0.352,0.04,1.41,-47.729,-35.095,191.528,1
0.435,0.005,1.404,-43.457,-38.025,178.406,1
0.507,-0.012,1.462,-30.518,-29.053,170.959,1
0.418,0.272,1.397,-25.024,-28.137,180.542,1
0.587,0.054,1.371,-27.222,-37.964,232.239,1
0.634,-0.015,1.391,-21.057,-29.175,241.76,1
0.654,0.05,1.375,-0.122,-25.94,230.164,1
0.697,0.13,1.354,18.494,-18.25,225.342,1
0.679,0.104,1.374,29.358,-12.085,223.389,1
0.661,0.145,1.371,38.025,-14.648,216.919,1
0.658,0.162,1.371,46.143,-20.508,216.675,1
0.65,0.137,1.389,52.551,-31.25,212.83,1
0.705,0.195,1.355,62.256,-46.326,208.252,1
0.761,0.183,1.335,71.777,-55.115,208.008,1
0.829,0.167,1.279,81.665,-62.5,204.773,1
0.849,0.184,1.262,94.177,-58.044,200.378,1
0.821,0.252,1.234,103.027,-56.152,195.679,1
0.803,0.256,1.228,105.408,-56.274,196.655,1
0.785,0.237,1.232,104.431,-59.753,198.181,1
0.754,0.199,1.246,103.21,-65.552,192.993,1
0.744,0.208,1.263,104.065,-72.021,181.458,1
0.801,0.247,1.245,106.384,-75.989,170.898,1
0.855,0.286,1.224,108.582,-71.045,165.1,1
0.83,0.292,1.198,110.229,-60.913,163.635,1
0.843,0.255,1.167,112.671,-53.711,164.612,1
0.778,0.218,1.132,117.065,-48.401,164.612,1
0.803,0.296,1.08,122.314,-46.692,155.945,1
0.643,0.166,1.087,125.244,-42.664,158.813,1
0.627,0.116,1.048,127.075,-53.223,133.728,1
0.604,0.307,1.006,132.751,-66.895,121.399,1
0.57,0.142,0.999,129.456,-76.05,125.061,1
0.597,0.219,0.953,123.779,-92.407,107.422,1
0.636,0.112,0.849,121.643,-102.112,104.431,1
0.539,0.313,0.887,120.544,-93.933,85.266,1
0.49,0.295,0.836,114.38,-99.976,86.06,1
0.566,0.288,0.78,98.755,-101.379,102.6,1
0.6,0.195,0.749,85.327,-89.294,115.479,1
0.54,0.131,0.724,83.435,-77.271,113.831,1
0.509,0.188,0.703,85.022,-66.711,99.304,1
0.477,0.264,0.664,80.078,-62.256,97.595,1
0.529,0.246,0.648,66.284,-50.903,99.915,1
0.59,0.172,0.652,51.941,-35.95,98.083,1
0.497,0.241,0.63,41.931,-23.437,88.196,1
0.592,0.187,0.648,33.081,-14.343,85.693,1
0.62,0.215,0.635,22.461,-9.399,75.073,1
0.601,0.302,0.632,13.733,0.916,74.158,1
0.645,0.229,0.65,-0.244,13.062,75.5,1
1.474,0.849,-0.317,70.679,-23.01,-95.398,0
1.455,0.803,-0.35,63.171,-30.09,-110.352,0
1.471,0.706,-0.367,57.007,-46.143,-120.056,0
1.527,0.647,-0.412,55.237,-68.848,-124.939,0
1.53,0.632,-0.456,53.772,-86.853,-128.479,0
1.503,0.624,-0.431,49.866,-93.323,-131.226,0
1.461,0.579,-0.4,46.082,-91.064,-131.958,0
1.434,0.555,-0.371,46.143,-82.947,-131.47,0
1.456,0.579,-0.346,48.95,-72.327,-130.737,0
1.446,0.584,-0.321,50.232,-63.599,-131.042,0
1.449,0.592,-0.298,50.476,-55.542,-132.996,0
1.42,0.598,-0.279,46.997,-47.424,-137.512,0
1.361,0.563,-0.276,37.537,-41.809,-145.386,0
1.34,0.531,-0.269,27.893,-38.513,-154.053,0
1.27,0.494,-0.246,20.081,-35.522,-163.879,0
1.183,0.435,-0.228,15.137,-35.95,-173.645,0
1.129,0.416,-0.219,13.367,-41.504,-181.58,0
1.069,0.411,-0.217,10.62,-45.654,-188.171,0
1.01,0.37,-0.193,4.639,-48.096,-194.946,0
0.952,0.347,-0.206,-1.16,-46.753,-200.684,0
0.836,0.298,-0.198,-8.179,-39.246,-205.994,0
0.751,0.263,-0.201,-13.428,-34.302,-210.999,0
0.694,0.269,-0.195,-17.517,-34.058,-214.355,0
0.656,0.216,-0.186,-23.621,-31.677,-217.102,0
0.591,0.164,-0.226,-27.771,-28.809,-219.36,0
0.509,0.162,-0.216,-33.264,-28.87,-226.685,0
0.486,0.106,-0.222,-43.457,-33.02,-232.849,0
0.466,0.07,-0.229,-52.673,-37.048,-234.07,0
0.399,0.039,-0.205,-62.256,-37.537,-234.253,0
0.335,-0.031,-0.193,-68.97,-37.598,-233.826,0
0.289,-0.063,-0.202,-70.801,-37.415,-231.201,1
0.245,-0.095,-0.219,-71.35,-38.391,-225.952,1
0.238,-0.107,-0.239,-75.317,-40.527,-222.168,1
0.203,-0.132,-0.232,-84.839,-41.077,-218.872,1
0.182,-0.154,-0.21,-99.243,-42.297,-215.82,1
0.129,-0.18,-0.186,-115.723,-45.837,-213.928,1
0.072,-0.227,-0.165,-129.211,-49.377,-210.022,1
0.05,-0.232,-0.147,-137.39,-52.246,-203.796,1
0.014,-0.245,-0.103,-142.761,-53.406,-197.571,1
-0.006,-0.307,-0.066,-145.081,-53.894,-192.566,1
-0.038,-0.304,-0.015,-141.296,-53.711,-187.378,1
-0.099,-0.308,0.035,-136.047,-53.589,-178.894,1
-0.113,-0.319,0.057,-131.226,-57.739,-166.504,1
-0.194,-0.326,0.086,-129.15,-66.284,-155.151,1
-0.203,-0.345,0.103,-129.089,-82.214,-145.508,1
-0.218,-0.37,0.133,-130.798,-100.22,-140.991,1
-0.254,-0.393,0.181,-134.155,-116.333,-141.357,1
-0.245,-0.38,0.231,-135.071,-126.77,-138.367,1
-0.223,-0.376,0.271,-135.803,-127.808,-129.7,1
-0.217,-0.369,0.333,-136.169,-120.117,-116.333,1
-0.25,-0.345,0.406,-136.169,-107.117,-100.098,1
-0.3,-0.334,0.494,-137.329,-93.628,-83.923,1
-0.258,-0.366,0.575,-137.39,-78.674,-65.613,1
-0.34,-0.282,0.637,-136.719,-62.5,-50.415,1
-0.336,-0.309,0.69,-138.428,-48.645,-30.09,1
-0.313,-0.345,0.74,-141.235,-40.71,-15.686,1
-0.351,-0.306,0.783,-139.893,-35.034,-3.662,1
-0.377,-0.285,0.864,-139.832,-29.419,10.742,1
-0.385,-0.308,0.942,-138.306,-28.87,31.982,1
-0.345,-0.298,0.993,-131.653,-31.616,52.124,1
-0.274,-0.259,1.017,-121.765,-31.25,70.129,1
-0.239,-0.231,1.037,-113.464,-26.062,83.923,1
-0.212,-0.209,1.049,-106.384,-18.127,93.689,1
-0.184,-0.177,1.073,-100.647,-9.888,101.135,1
-0.151,-0.127,1.098,-96.863,-3.723,111.145,1
-0.072,-0.089,1.124,-95.459,2.38,126.587,1
0.001,-0.076,1.167,-97.229,11.719,140.93,1
0.004,-0.041,1.221,-100.22,23.132,152.161,1
0.021,-0.067,1.26,-100.83,34.79,163.757,1
0.032,-0.024,1.292,-98.022,38.818,171.753,1
0.039,-0.09,1.434,-90.698,37.292,178.101,1
0.13,0.108,1.391,-78.308,17.578,186.584,1
0.262,-0.085,1.458,-68.848,15.076,215.393,1
0.334,-0.036,1.452,-51.27,14.038,206.299,1
0.388,0.052,1.445,-27.039,20.935,208.069,1
0.354,0.021,1.453,-13.672,25.391,207.336,1
0.366,0.097,1.459,-1.648,22.156,206.97,1
0.405,0.109,1.488,6.592,18.555,215.088,1
0.429,0.059,1.508,12.268,11.841,219.238,1
0.45,0.069,1.497,22.583,3.662,218.262,1
0.479,0.115,1.483,33.997,-2.93,216.553,1
0.553,0.127,1.437,45.166,-8.179,220.459,1
0.61,0.128,1.392,55.908,-8.911,227.051,1
0.658,0.18,1.35,66.284,-5.676,232.788,1
0.677,0.167,1.321,74.036,-0.305,238.892,1
0.668,0.17,1.295,80.383,3.662,238.831,1
0.654,0.183,1.271,85.938,5.249,234.009,1
0.637,0.205,1.256,90.332,5.371,229.492,1
0.651,0.205,1.234,93.445,2.136,223.755,1
0.713,0.193,1.216,97.107,-1.587,216.797,1
0.809,0.368,1.168,101.013,1.282,216.248,1
0.869,0.24,1.135,101.929,10.437,230.103,1
0.878,0.256,1.094,102.6,18.372,208.374,1
0.849,0.355,1.038,108.215,26.917,198.12,1
0.792,0.237,1.034,106.506,29.419,194.275,1
0.699,0.283,1.026,107.727,24.17,186.523,1
0.671,0.239,1.037,107.544,10.254,179.443,1
0.693,0.137,1.002,110.535,-8.789,161.316,1
0.728,0.153,0.987,118.896,-14.221,132.629,1
0.671,0.375,0.959,128.845,-16.785,117.676,1
0.772,0.462,0.872,129.028,-23.193,137.634,1
0.868,0.306,0.849,119.324,-18.372,154.724,1
0.851,0.35,0.815,116.76,-6.836,145.813,1
0.791,0.372,0.786,116.76,6.958,143.799,1
0.786,0.313,0.782,113.831,18.433,142.029,1
0.679,0.353,0.747,112.366,23.437,137.024,1
0.673,0.232,0.721,109.924,21.973,131.897,1
0.632,0.239,0.685,112.061,13.428,120.972,1
0.627,0.273,0.647,114.197,4.211,111.755,1
0.625,0.161,0.669,111.023,-5.188,101.318,1
0.495,0.248,0.561,108.215,-23.071,90.454,1
0.547,0.222,0.637,100.647,-26.978,80.139,1
0.5,0.122,0.582,95.642,-57.8,76.904,1
0.561,0.213,0.591,93.201,-58.044,58.777,1
0.516,0.166,0.583,86.975,-58.533,51.392,1
0.475,0.223,0.583,81.116,-63.66,42.175,1
0.52,0.196,0.573,76.477,-70.007,42.358,1
0.523,0.243,0.558,69.458,-68.848,38.452,1
0.557,0.216,0.562,61.89,-57.678,41.748,1
1.437,0.703,-0.709,48.828,-2.441,-52.49,0
1.49,0.737,-0.726,40.71,-8.667,-63.538,0
1.505,0.746,-0.63,33.447,-13.306,-72.754,0
1.528,0.699,-0.561,33.752,-25.085,-77.637,0
1.572,0.672,-0.539,44.373,-40.894,-81.482,0
1.624,0.68,-0.534,61.096,-55.481,-88.44,0
1.707,0.726,-0.558,76.355,-66.528,-99.487,0
1.77,0.768,-0.579,81.177,-70.557,-114.99,0
1.735,0.746,-0.56,74.402,-68.665,-133.911,0
1.72,0.701,-0.55,62.683,-64.453,-153.503,0
1.669,0.681,-0.468,50.415,-54.749,-171.082,0
1.607,0.588,-0.418,41.016,-39.185,-185.059,0
1.554,0.535,-0.406,39.429,-25.33,-193.298,0
1.492,0.528,-0.385,40.161,-13.428,-198.364,0
1.439,0.477,-0.373,38.208,-0.488,-202.026,0
1.345,0.431,-0.391,34.973,13.916,-208.13,0
1.25,0.407,-0.403,30.273,28.564,-214.905,0
1.143,0.341,-0.397,20.02,42.297,-222.351,0
1,0.256,-0.354,7.874,51.453,-229.675,0
0.887,0.229,-0.312,-0.488,53.833,-233.276,0
0.802,0.165,-0.294,-6.287,52.185,-232.727,0
0.726,0.115,-0.301,-11.414,52.979,-235.229,0
0.698,0.129,-0.326,-15.32,60.669,-228.76,1
0.63,0.048,-0.34,-26.001,69.458,-223.816,1
0.548,-0.036,-0.327,-39.551,75.928,-225.769,1
0.426,-0.083,-0.323,-51.147,77.637,-229.675,1
0.266,-0.161,-0.339,-61.035,70.313,-230.957,1
0.185,-0.178,-0.395,-65.674,56.702,-230.225,1
0.118,-0.201,-0.437,-70.007,42.48,-228.516,1
0.027,-0.242,-0.464,-76.782,26.306,-229.919,1
-0.013,-0.257,-0.454,-82.886,5.798,-228.821,1
-0.031,-0.29,-0.445,-90.515,-14.709,-227.051,1
-0.101,-0.299,-0.432,-98.694,-32.41,-223.938,1
-0.081,-0.304,-0.421,-104.492,-46.631,-218.811,1
-0.134,-0.309,-0.396,-109.802,-53.101,-211.792,1
-0.147,-0.312,-0.362,-115.356,-57.007,-205.261,1
-0.135,-0.31,-0.347,-119.019,-58.105,-195.679,1
-0.194,-0.282,-0.311,-121.033,-48.95,-173.523,1
-0.249,-0.294,-0.28,-126.465,-46.204,-157.41,1
-0.195,-0.295,-0.273,-130.371,-47.18,-138.855,1
-0.187,-0.275,-0.262,-134.827,-45.654,-127.075,1
-0.259,-0.274,-0.226,-142.029,-41.321,-121.216,1
-0.307,-0.258,-0.188,-148.682,-42.603,-113.403,1
-0.343,-0.255,-0.141,-154.968,-50.537,-103.943,1
-0.399,-0.257,-0.081,-159.912,-62.988,-93.933,1
-0.417,-0.292,-0.021,-161.499,-79.529,-81.604,1
-0.385,-0.295,0.019,-158.386,-95.093,-67.017,1
-0.343,-0.309,0.043,-151.855,-106.75,-50.171,1
-0.358,-0.299,0.094,-144.348,-113.464,-36.011,1
-0.342,-0.26,0.123,-134.155,-118.896,-17.09,1
-0.316,-0.225,0.155,-125.549,-122.314,5.432,1
-0.277,-0.195,0.223,-121.46,-124.023,24.658,1
-0.243,-0.185,0.289,-120.85,-121.46,42.114,1
-0.215,-0.176,0.353,-121.399,-114.258,56.396,1
-0.195,-0.144,0.405,-123.108,-105.774,65.674,1
-0.182,-0.124,0.473,-127.502,-95.337,74.463,1
-0.195,-0.124,0.573,-133.85,-85.388,82.947,1
-0.17,-0.122,0.669,-138.306,-77.881,91.919,1
-0.07,-0.089,0.753,-138.855,-67.993,104.126,1
-0.003,-0.098,0.857,-137.146,-51.636,117.493,1
0.018,-0.071,0.907,-135.559,-37.476,119.812,1
0.002,-0.027,1.004,-130.676,-22.217,129.761,1
0.015,-0.051,1.087,-126.465,-14.771,142.822,1
0.017,-0.081,1.139,-119.507,-16.296,153.32,1
0.058,-0.085,1.165,-107.544,-22.034,163.757,1
0.09,-0.062,1.187,-92.346,-29.114,174.866,1
0.134,-0.031,1.21,-78.003,-38.147,182.983,1
0.182,0.005,1.234,-66.284,-48.096,187.317,1
0.215,0.04,1.279,-56.091,-56.885,190.491,1
0.261,0.052,1.32,-47.607,-65.674,191.345,1
0.291,0.059,1.334,-39.368,-73.669,191.467,1
0.336,0.072,1.323,-30.334,-81.177,193.359,1
0.386,0.073,1.293,-21.301,-85.449,197.205,1
0.426,0.089,1.272,-11.23,-87.524,202.759,1
0.437,0.102,1.271,-2.197,-88.135,206.909,1
0.544,0.091,1.267,5.249,-89.844,211.243,1
0.493,0.113,1.276,10.193,-89.355,218.872,1
0.539,0.237,1.226,14.587,-87.891,215.332,1
0.672,0.216,1.286,21.606,-77.515,221.619,1
0.645,0.203,1.207,21.301,-74.219,226.99,1
0.537,0.32,1.216,17.456,-67.81,220.764,1
0.634,0.178,1.233,11.414,-88.928,223.999,1
0.677,0.245,1.235,10.986,-97.656,224.365,1
0.689,0.095,1.247,15.076,-96.68,224.548,1
0.707,0.284,1.224,25.269,-101.807,205.627,1
0.73,0.142,1.296,34.79,-95.154,201.294,1
0.71,0.216,1.287,47.058,-98.694,175.171,1
0.733,0.45,1.256,59.998,-104.797,174.194,1
0.794,0.203,1.287,54.565,-103.149,189.88,1
0.727,0.282,1.278,61.279,-103.699,183.899,1
0.702,0.257,1.301,67.017,-104.858,172.18,1
0.69,0.288,1.321,68.42,-111.755,160.339,1
0.745,0.311,1.337,67.322,-118.713,157.043,1
0.857,0.289,1.33,64.453,-118.774,158.203,1
0.888,0.266,1.297,66.772,-106.628,157.837,1
0.833,0.302,1.284,70.19,-88.257,155.273,1
0.81,0.336,1.246,69.824,-76.294,157.959,1
0.802,0.288,1.217,68.42,-67.749,163.147,1
0.7,0.284,1.211,70.923,-63.416,162.659,1
0.652,0.299,1.2,71.777,-68.665,163.086,1
0.643,0.184,1.212,71.106,-77.209,163.818,1
0.705,0.246,1.181,75.562,-88.318,151.917,1
0.789,0.236,1.159,79.224,-87.952,140.991,1
0.766,0.313,1.106,79.468,-81.848,126.709,1
0.782,0.372,1.045,75.317,-73.181,122.986,1
0.776,0.249,1.016,66.528,-63.416,123.962,1
0.747,0.254,0.983,64.209,-56.335,111.145,1
0.687,0.313,0.962,63.965,-52.917,101.563,1
0.693,0.261,0.956,57.312,-53.284,98.572,1
0.724,0.266,0.932,53.223,-53.223,93.14,1
0.785,0.288,0.912,49.194,-50.354,87.219,1
0.795,0.364,0.873,41.199,-45.776,86.731,1
0.868,0.256,0.863,31.433,-36.011,85.693,1
0.845,0.346,0.83,25.33,-19.287,76.294,1
0.825,0.237,0.829,16.541,-1.831,72.021,1
0.767,0.266,0.804,13.123,13.184,57.495,1
0.707,0.261,0.79,12.268,26.245,48.889,1
0.731,0.361,0.731,8.728,33.142,33.264,1
0.689,-0.012,0.873,4.761,35.217,32.471,1
1.453,0.751,-0.476,69.397,-66.895,-34.851,0
1.484,0.785,-0.476,67.749,-68.298,-47.058,0
1.541,0.796,-0.49,64.026,-72.327,-58.655,0
1.565,0.787,-0.489,60.669,-78.369,-72.51,0
1.558,0.799,-0.45,62.866,-87.219,-86.853,0
1.555,0.804,-0.432,69.214,-100.83,-99.182,0
1.605,0.805,-0.443,75.806,-114.99,-110.413,0
1.673,0.814,-0.464,79.956,-125.854,-123.23,0
1.739,0.809,-0.494,80.444,-128.54,-135.437,0
1.737,0.775,-0.471,78.796,-121.948,-146.667,0
1.669,0.751,-0.423,77.759,-111.938,-158.02,0
1.618,0.749,-0.393,75.684,-106.567,-170.349,0
1.585,0.736,-0.391,68.237,-102.112,-183.228,0
1.505,0.695,-0.377,57.617,-92.834,-195.007,0
1.401,0.642,-0.361,46.814,-84.045,-205.383,0
1.299,0.581,-0.367,39.856,-75.439,-212.769,0
1.179,0.53,-0.323,33.997,-64.209,-219.788,0
1.079,0.493,-0.302,28.259,-55.359,-226.99,0
0.968,0.444,-0.319,22.888,-51.758,-231.995,0
0.849,0.381,-0.33,16.235,-49.133,-236.023,0
0.733,0.325,-0.353,8.423,-47.302,-241.577,0
0.666,0.29,-0.365,-0.488,-46.692,-245.911,0
0.55,0.262,-0.278,-10.62,-44.312,-251.526,0
0.443,0.171,-0.269,-19.043,-42.603,-256.836,0
0.49,0.162,-0.339,-20.508,-43.457,-254.517,0
0.455,0.167,-0.33,-29.053,-35.828,-252.319,0
0.403,0.092,-0.336,-45.593,-26.367,-252.563,0
0.345,0.062,-0.331,-62.195,-19.104,-250.61,0
0.271,0.033,-0.297,-78.796,-13.916,-245.911,0
0.194,-0.037,-0.229,-91.431,-9.033,-238.342,0
0.125,-0.117,-0.195,-94.36,-5.798,-228.516,1
0.084,-0.173,-0.204,-90.088,-6.226,-218.811,1
0.055,-0.168,-0.232,-86.975,-11.292,-209.717,1
0.075,-0.184,-0.242,-91.797,-19.653,-204.163,1
0.06,-0.232,-0.216,-102.478,-26.001,-201.05,1
0.016,-0.257,-0.2,-111.084,-32.471,-193.97,1
-0.018,-0.305,-0.183,-117.249,-39.429,-185.608,1
-0.018,-0.334,-0.149,-120.544,-47.791,-179.626,1
-0.053,-0.331,-0.134,-122.681,-57.861,-177.185,1
-0.047,-0.336,-0.114,-125.122,-68.237,-174.622,1
-0.125,-0.344,-0.074,-127.38,-74.768,-169.067,1
-0.141,-0.369,-0.032,-127.014,-81.177,-159.546,1
-0.168,-0.378,0.007,-124.817,-91.98,-151.978,1
-0.198,-0.367,0.038,-124.084,-103.333,-149.414,1
-0.208,-0.362,0.077,-124.573,-112.793,-144.104,1
-0.254,-0.353,0.116,-127.991,-121.155,-137.146,1
-0.282,-0.348,0.17,-134.399,-128.235,-128.479,1
-0.287,-0.357,0.247,-141.663,-133.545,-119.324,1
-0.221,-0.387,0.316,-146.667,-132.751,-109.009,1
-0.27,-0.344,0.373,-146.912,-120.056,-98.206,1
-0.276,-0.338,0.44,-146.24,-95.398,-79.102,1
-0.248,-0.323,0.52,-143.86,-70.007,-54.993,1
-0.292,-0.265,0.601,-140.808,-47.18,-29.236,1
-0.32,-0.246,0.691,-140.747,-25.696,-6.592,1
-0.362,-0.227,0.769,-140.747,-12.573,15.259,1
-0.379,-0.246,0.829,-140.32,-6.042,37.17,1
-0.387,-0.238,0.889,-137.756,-5.371,56.274,1
-0.344,-0.226,0.945,-132.568,-9.888,70.984,1
-0.287,-0.223,0.998,-126.343,-15.564,77.942,1
-0.258,-0.147,1.029,-120.056,-16.113,81.421,1
-0.22,-0.111,1.092,-115.967,-10.376,97.961,1
-0.193,-0.108,1.14,-112,-8.667,115.479,1
-0.141,-0.057,1.172,-105.164,-9.705,131.165,1
-0.075,-0.018,1.184,-99.731,-10.071,146.545,1
0.002,-0.005,1.203,-94.971,-6.836,161.316,1
0.051,0.019,1.22,-89.478,-1.038,173.279,1
0.067,0.039,1.235,-83.313,3.784,182.251,1
0.085,0.068,1.263,-77.454,6.47,190.43,1
0.217,0.051,1.285,-69.946,6.409,188.599,1
0.17,0.078,1.357,-60.364,9.766,189.026,1
0.214,0.271,1.338,-55.908,3.723,189.575,1
0.286,0.116,1.383,-55.176,-4.761,226.44,1
0.326,0.029,1.441,-49.194,-6.226,219.116,1
0.282,0.187,1.454,-27.71,-11.414,206.482,1
0.3,0.168,1.484,-13.733,-14.771,203.674,1
0.308,0.198,1.487,-1.709,-25.757,199.646,1
0.362,0.272,1.453,9.705,-37.781,201.538,1
0.438,0.24,1.425,16.724,-44.189,210.388,1
0.508,0.246,1.376,25.208,-46.814,214.172,1
0.57,0.291,1.325,34.363,-42.419,216.248,1
0.587,0.288,1.29,39.917,-34.241,219.36,1
0.572,0.301,1.265,43.884,-27.283,221.741,1
0.579,0.307,1.244,46.692,-24.902,221.619,1
0.584,0.314,1.229,48.279,-25.391,217.896,1
0.583,0.328,1.215,48.828,-26.062,212.585,1
0.581,0.332,1.218,50.049,-26.062,208.069,1
0.594,0.352,1.215,52.917,-27.344,204.651,1
0.641,0.38,1.2,57.495,-28.748,204.102,1
0.653,0.392,1.176,61.584,-27.893,205.505,1
0.639,0.371,1.161,65.186,-26.855,204.712,1
0.587,0.386,1.146,68.726,-28.992,196.716,1
0.52,0.401,1.138,70.496,-34.729,189.819,1
0.448,0.389,1.143,70.313,-44.8,185.059,1
0.442,0.387,1.155,70.862,-60.486,177.307,1
0.519,0.439,1.149,73.181,-74.951,168.884,1
0.583,0.485,1.135,74.585,-79.102,166.87,1
0.603,0.475,1.132,75.256,-74.524,168.091,1
0.608,0.528,1.111,77.637,-65.979,168.03,1
0.631,0.445,1.096,79.895,-57.434,163.94,1
0.603,0.536,1.06,82.947,-47.974,164.734,1
0.505,0.498,1.09,78.308,-38.818,172.302,1
0.508,0.279,1.068,74.768,-46.936,163.513,1
0.559,0.224,1.033,80.811,-46.631,128.601,1
0.522,0.65,1,88.074,-46.509,91.553,1
0.619,0.471,0.95,84.351,-47.974,147.4,1
0.753,0.338,0.927,73.608,-43.579,155.64,1
0.809,0.475,0.879,76.721,-31.738,143.677,1
0.764,0.484,0.849,71.838,-16.296,141.541,1
0.786,0.362,0.831,64.27,-2.93,142.212,1
0.75,0.363,0.816,61.035,5.676,127.747,1
0.646,0.399,0.785,59.021,9.033,115.845,1
0.687,0.26,0.801,55.359,1.831,110.901,1
0.675,0.328,0.72,54.199,-3.784,101.807,1
0.634,0.232,0.766,49.5,3.662,89.172,1
0.55,0.187,0.733,48.096,-12.939,77.393,1
0.587,0.208,0.708,48.767,-26.611,64.941,1
0.579,0.198,0.698,45.41,-29.663,53.406,1
0.514,0.181,0.696,40.1,-33.691,41.26,1
0.482,0.176,0.701,35.4,-38.086,29.419,1
1.271,0.666,-0.724,69.58,14.16,-23.499,0
1.312,0.682,-0.798,73.486,2.38,-34.18,0
1.323,0.727,-0.818,76.111,-14.038,-46.875,0
1.317,0.777,-0.814,77.271,-38.147,-59.692,0
1.399,0.828,-0.815,78.003,-64.026,-71.655,0
1.508,0.841,-0.8,76.05,-83.435,-82.336,0
1.568,0.82,-0.798,76.66,-96.008,-93.689,0
1.585,0.813,-0.789,82.886,-104.309,-105.164,0
1.628,0.839,-0.788,89.722,-112.122,-118.652,0
1.654,0.839,-0.796,90.271,-123.657,-134.888,0
1.644,0.824,-0.734,87.28,-131.348,-150.94,0
1.585,0.769,-0.647,83.435,-137.878,-169.312,0
1.622,0.754,-0.586,82.703,-143.555,-188.049,0
1.61,0.742,-0.538,79.651,-142.029,-205.75,0
1.504,0.686,-0.495,72.937,-133.423,-221.497,0
1.379,0.612,-0.451,66.284,-120.85,-234.314,0
1.288,0.562,-0.417,60.669,-109.314,-245.056,0
1.152,0.482,-0.379,53.467,-97.778,-254.395,0
1.033,0.435,-0.363,46.692,-86.182,-260.681,0
0.882,0.381,-0.313,38.391,-73.914,-265.259,0
0.761,0.307,-0.313,30.396,-64.514,-268.311,0
0.658,0.249,-0.331,24.292,-59.509,-268.677,0
0.538,0.195,-0.318,17.395,-58.35,-267.334,0
0.466,0.169,-0.299,9.399,-59.753,-268.188,0
0.391,0.136,-0.237,-0.305,-58.167,-270.325,0
0.366,0.073,-0.237,-11.78,-52.856,-274.109,0
0.368,-0.03,-0.282,-20.508,-48.218,-278.442,0
0.294,0.065,-0.292,-28.32,-33.508,-270.203,0
0.241,-0.029,-0.295,-47.729,-16.907,-257.019,0
0.161,-0.135,-0.306,-69.397,-10.132,-258.484,1
0.097,-0.125,-0.277,-83.435,-7.874,-264.771,1
0.071,-0.127,-0.251,-92.346,-3.967,-263.367,1
0.037,-0.16,-0.205,-99.121,2.502,-254.7,1
-0.015,-0.223,-0.178,-103.394,8.24,-245.667,1
-0.049,-0.275,-0.18,-104.492,8.972,-233.765,1
-0.099,-0.299,-0.178,-100.525,2.441,-216.736,1
-0.131,-0.335,-0.153,-98.145,-7.324,-201.111,1
-0.146,-0.348,-0.146,-96.924,-20.264,-190.247,1
-0.159,-0.401,-0.13,-97.534,-32.166,-182.373,1
-0.141,-0.383,-0.135,-94.666,-42.542,-171.143,1
-0.185,-0.387,-0.11,-93.506,-51.636,-158.691,1
-0.171,-0.434,-0.066,-92.834,-57.617,-145.996,1
-0.179,-0.458,-0.057,-88.684,-61.096,-134.338,1
-0.166,-0.427,-0.06,-84.167,-64.941,-124.023,1
-0.176,-0.41,-0.062,-85.999,-69.336,-116.15,1
-0.205,-0.428,-0.037,-94.482,-74.524,-110.901,1
-0.258,-0.421,-0.009,-105.225,-83.069,-107.849,1
-0.26,-0.441,0.028,-118.164,-92.712,-106.14,1
-0.265,-0.447,0.08,-130.859,-100.708,-104.553,1
-0.269,-0.41,0.132,-141.235,-104.614,-99.121,1
-0.247,-0.433,0.198,-151.611,-99.426,-90.698,1
-0.211,-0.434,0.267,-157.166,-83.252,-76.355,1
-0.231,-0.42,0.329,-158.936,-59.387,-58.044,1
-0.279,-0.361,0.398,-159.058,-37.17,-35.217,1
-0.271,-0.348,0.468,-160.706,-18.982,-9.033,1
-0.263,-0.333,0.518,-161.804,-5.432,13.733,1
-0.275,-0.308,0.574,-161.499,2.869,33.081,1
-0.28,-0.3,0.659,-162.781,4.089,42.358,1
-0.27,-0.259,0.744,-163.513,2.93,48.218,1
-0.258,-0.211,0.831,-163.879,1.892,60.486,1
-0.207,-0.218,0.903,-162.72,2.319,81.177,1
-0.17,-0.212,0.952,-156.128,4.944,100.708,1
-0.117,-0.179,0.995,-144.592,9.46,118.835,1
-0.108,-0.138,1.044,-132.08,13.855,137.207,1
-0.052,-0.081,1.092,-119.751,14.954,153.015,1
0,-0.051,1.123,-109.741,14.465,167.847,1
0.057,-0.02,1.15,-101.196,14.282,179.993,1
0.128,0.043,1.182,-93.384,15.93,190.43,1
0.194,0.094,1.226,-88.745,19.775,197.205,1
0.274,0.114,1.261,-86.426,27.405,201.416,1
0.324,0.16,1.3,-83.313,39.429,204.651,1
0.391,0.186,1.361,-79.895,51.819,208.313,1
0.419,0.185,1.403,-74.768,61.523,211.914,1
0.417,0.238,1.401,-65.491,66.284,215.088,1
0.483,0.263,1.413,-50.537,64.087,216.675,1
0.422,0.17,1.393,-32.288,55.115,226.868,1
0.442,0.21,1.352,-13.245,39.673,216.37,1
0.626,0.219,1.307,9.094,25.818,208.618,1
0.54,0.438,1.311,32.349,22.034,211.609,1
0.601,0.354,1.268,39.612,2.258,242.31,1
0.717,0.392,1.233,45.166,-7.874,256.287,1
0.8,0.248,1.2,57.19,-10.01,262.207,1
0.81,0.351,1.141,68.726,-8.545,233.582,1
0.838,0.413,1.125,79.773,-0.977,223.816,1
0.839,0.418,1.111,81.421,2.197,219.421,1
0.84,0.404,1.105,78.979,3.357,212.402,1
0.866,0.413,1.094,79.59,1.404,207.52,1
0.892,0.396,1.093,81.848,1.221,205.322,1
0.903,0.402,1.079,85.205,0,196.106,1
0.967,0.466,1.054,90.027,-3.54,189.941,1
1.002,0.44,1.033,95.093,-2.136,190.796,1
1.001,0.463,1.004,101.563,0.366,187.134,1
1,0.444,0.999,108.398,1.16,184.082,1
0.958,0.417,0.992,115.967,0.183,179.993,1
0.953,0.417,0.975,123.291,-5.737,171.326,1
0.886,0.386,0.973,130.188,-12.512,159.912,1
0.873,0.437,0.957,137.085,-26.062,147.278,1
0.905,0.445,0.943,141.113,-38.757,143.311,1
0.895,0.392,0.925,143.372,-45.715,138.123,1
0.847,0.384,0.905,148.499,-49.133,131.042,1
0.81,0.39,0.886,152.527,-53.894,124.817,1
0.765,0.323,0.881,153.748,-58.899,121.887,1
0.742,0.299,0.862,154.48,-66.528,111.938,1
0.707,0.333,0.85,156.128,-72.083,103.76,1
0.639,0.262,0.857,152.405,-77.637,98.083,1
0.69,0.33,0.817,146.729,-88.013,91.919,1
0.8,0.277,0.784,141.113,-85.754,89.722,1
0.773,0.374,0.74,137.085,-76.782,80.444,1
0.753,0.39,0.704,129.456,-67.505,84.717,1
0.788,0.331,0.677,117.493,-60.12,90.759,1
0.784,0.316,0.629,110.413,-51.819,92.285,1
0.763,0.291,0.586,104.797,-41.26,91.125,1
0.73,0.283,0.554,97.9,-34.119,79.773,1
0.694,0.302,0.54,89.661,-32.104,76.782,1
0.632,0.166,0.58,73.975,-33.997,68.054,1
0.72,0.299,0.544,66.956,-45.898,50.659,1
0.837,0.378,0.54,56.335,-46.814,54.321,1
0.819,0.343,0.492,36.255,-38.513,49.988,1
0.957,0.213,0.553,26.306,-23.499,49.683,1
1.599,0.624,-0.547,86.426,-72.144,-47.913,0
1.621,0.608,-0.509,83.13,-73.486,-59.814,0
1.609,0.532,-0.497,75.378,-80.2,-74.707,0
1.651,0.49,-0.493,74.097,-91.614,-85.754,0
1.667,0.502,-0.491,73.364,-98.877,-98.267,0
1.601,0.499,-0.445,70.19,-102.539,-110.596,0
1.578,0.465,-0.416,70.679,-105.591,-121.216,0
1.577,0.462,-0.417,74.707,-108.521,-132.08,0
1.516,0.437,-0.413,77.393,-108.276,-143.127,0
1.497,0.424,-0.416,77.698,-106.384,-153.809,0
1.413,0.411,-0.39,71.838,-100.891,-166.199,0
1.32,0.364,-0.365,61.096,-91.919,-178.04,0
1.24,0.317,-0.369,50.415,-82.947,-187.683,0
1.104,0.276,-0.322,42.236,-73.73,-196.228,0
0.985,0.224,-0.304,37.17,-66.345,-202.698,0
0.921,0.185,-0.33,34.241,-61.035,-206.665,0
0.845,0.176,-0.357,30.334,-55.054,-211.121,0
0.716,0.125,-0.374,20.935,-47.607,-217.041,0
0.61,0.066,-0.383,10.742,-42.847,-221.008,0
0.548,0.042,-0.406,2.075,-41.748,-221.558,0
0.492,0.013,-0.418,-8.362,-42.542,-221.375,0
0.432,-0.01,-0.411,-19.653,-43.335,-220.154,0
0.37,-0.046,-0.415,-32.959,-44.983,-218.018,0
0.304,-0.087,-0.42,-47.363,-49.438,-216.187,0
0.23,-0.148,-0.414,-61.462,-55.725,-215.637,0
0.226,-0.177,-0.399,-73.73,-61.951,-214.417,0
0.252,-0.197,-0.349,-83.13,-67.139,-212.341,0
0.196,-0.246,-0.31,-86.914,-63.782,-209.534,0
0.155,-0.268,-0.315,-86.426,-51.086,-204.468,1
0.126,-0.289,-0.325,-85.999,-39.795,-195.007,1
0.042,-0.303,-0.319,-88.318,-33.63,-181.946,1
0.006,-0.312,-0.291,-92.712,-32.349,-165.588,1
0.04,-0.314,-0.283,-97.229,-32.715,-150.269,1
0.067,-0.293,-0.269,-103.088,-33.142,-139.343,1
0.051,-0.279,-0.26,-112.915,-33.447,-133.789,1
0.05,-0.307,-0.212,-126.77,-34.668,-131.165,1
-0.084,-0.299,-0.16,-140.991,-37.964,-130.066,1
-0.115,-0.305,-0.101,-155.273,-50.049,-128.662,1
-0.12,-0.364,-0.028,-167.725,-68.726,-127.93,1
-0.102,-0.398,0.041,-171.143,-84.9,-133.057,1
-0.127,-0.351,0.094,-166.687,-94.604,-131.165,1
-0.164,-0.382,0.158,-164.124,-101.074,-120.789,1
-0.206,-0.373,0.212,-157.898,-111.938,-106.262,1
-0.166,-0.309,0.262,-151.062,-128.418,-91.187,1
-0.165,-0.301,0.327,-150.94,-143.555,-81.909,1
-0.165,-0.269,0.427,-153.564,-151.733,-78.735,1
-0.141,-0.268,0.511,-154.175,-155.701,-72.021,1
-0.119,-0.216,0.59,-154.724,-151.855,-69.336,1
-0.071,-0.202,0.659,-155.945,-138.733,-59.509,1
-0.074,-0.167,0.744,-159.058,-113.953,-51.208,1
-0.123,-0.113,0.844,-161.743,-88.501,-30.457,1
-0.106,-0.137,0.943,-162.048,-63.232,-3.845,1
-0.08,-0.17,0.998,-156.86,-40.527,20.874,1
-0.085,-0.187,1.046,-144.897,-19.165,37.537,1
-0.138,-0.147,1.058,-130.066,-9.033,43.64,1
-0.112,-0.089,1.089,-119.202,-4.15,45.715,1
-0.142,-0.068,1.112,-114.563,-4.15,53.955,1
-0.151,-0.034,1.141,-110.84,-9.521,69.275,1
-0.086,-0.022,1.197,-108.154,-17.09,86.304,1
-0.107,-0.027,1.194,-106.445,-23.865,106.018,1
0.056,-0.106,1.263,-99.915,-23.682,111.206,1
0.029,0.116,1.199,-86.609,-30.762,125.671,1
0.133,-0.004,1.266,-83.435,-14.16,153.137,1
0.184,-0.046,1.268,-75.073,-6.836,157.898,1
0.204,0.059,1.265,-56.641,5.737,163.086,1
0.229,0.053,1.288,-47.119,18.799,167.969,1
0.228,0.082,1.3,-41.26,24.658,169.983,1
0.243,0.114,1.333,-37.72,27.161,171.204,1
0.272,0.125,1.337,-34.241,27.1,178.467,1
0.242,0.115,1.348,-28.076,23.56,193.726,1
0.263,0.148,1.377,-19.592,12.817,205.627,1
0.261,0.162,1.396,-7.507,0.916,218.994,1
0.308,0.189,1.399,4.272,-14.038,219.727,1
0.336,0.177,1.401,15.93,-27.527,223.633,1
0.404,0.163,1.371,27.344,-36.438,216.431,1
0.46,0.234,1.322,41.687,-36.804,211.975,1
0.445,0.259,1.284,49.561,-32.166,211.914,1
0.483,0.287,1.244,52.49,-31.433,213.257,1
0.502,0.283,1.217,54.382,-29.48,221.375,1
0.521,0.265,1.194,54.81,-27.893,225.769,1
0.514,0.23,1.18,55.115,-24.902,222.961,1
0.49,0.232,1.176,57.678,-22.278,213.196,1
0.477,0.291,1.177,61.34,-22.339,207.031,1
0.475,0.291,1.194,60.181,-23.376,205.322,1
0.492,0.299,1.21,57.373,-26.184,201.66,1
0.525,0.335,1.206,56.885,-30.212,200.073,1
0.541,0.34,1.19,57.007,-32.41,202.515,1
0.531,0.335,1.19,58.167,-33.386,204.285,1
0.511,0.324,1.215,60.791,-35.828,202.759,1
0.477,0.318,1.243,65.247,-39.001,197.388,1
0.458,0.338,1.25,71.472,-45.166,191.406,1
0.492,0.367,1.257,77.698,-52.185,188.049,1
0.604,0.403,1.255,82.886,-55.298,180.786,1
0.675,0.422,1.237,87.891,-49.255,189.514,1
0.731,0.326,1.218,87.83,-39.185,182.129,1
0.73,0.406,1.168,95.764,-28.931,167.664,1
0.747,0.408,1.163,101.379,-6.47,166.321,1
0.642,0.444,1.102,100.647,2.319,175.049,1
0.618,0.314,1.108,94.421,4.578,179.932,1
0.607,0.289,1.079,93.872,-6.104,172.668,1
0.618,0.303,1.051,96.619,-14.526,167.053,1
0.676,0.303,0.995,98.389,-22.827,158.325,1
0.748,0.217,0.946,102.417,-25.513,150.635,1
0.682,0.351,0.859,106.934,-32.349,132.812,1
0.694,0.324,0.887,110.718,-27.71,125.122,1
0.691,0.3,0.834,108.154,-41.992,118.591,1
0.7,0.344,0.781,107.788,-48.462,112.183,1
0.743,0.304,0.738,102.173,-39.001,107.3,1
0.697,0.243,0.723,94.36,-26.917,95.398,1
0.61,0.274,0.684,90.088,-29.053,83.008,1
0.607,0.183,0.68,82.092,-39.063,71.594,1
0.597,0.224,0.629,74.158,-55.725,56.396,1
0.615,0.216,0.627,64.514,-58.289,45.105,1
0.607,0.197,0.639,53.65,-55.847,33.752,1
0.598,0.262,0.64,46.57,-54.504,26.917,1
0.652,0.22,0.657,36.743,-46.692,25.757,1
0.656,0.239,0.639,28.992,-34.79,24.292,1
0.679,0.228,0.645,23.315,-14.709,26.978,1
0.652,0.244,0.644,14.771,5.859,28.381,1
1.415,0.57,-0.59,59.021,-91.431,-68.909,0
1.476,0.597,-0.597,65.674,-95.093,-75.012,0
1.509,0.634,-0.596,71.289,-95.703,-81.421,0
1.544,0.643,-0.597,73.853,-96.863,-87.891,0
1.603,0.655,-0.596,75.562,-99.731,-94.666,0
1.655,0.673,-0.569,75.623,-102.051,-102.905,0
1.67,0.675,-0.536,73.792,-101.135,-113.342,0
1.657,0.658,-0.538,70.862,-97.168,-124.207,0
1.628,0.64,-0.546,64.636,-90.027,-135.864,0
1.558,0.613,-0.548,56.702,-80.505,-150.269,0
1.458,0.567,-0.55,47.607,-75.989,-166.626,0
1.365,0.52,-0.543,42.419,-77.637,-180.176,0
1.257,0.473,-0.467,40.161,-78.186,-189.27,0
1.212,0.412,-0.37,44.922,-82.825,-195.374,0
1.151,0.373,-0.315,54.382,-89.417,-199.402,0
1.119,0.388,-0.281,65.674,-92.468,-202.515,0
1.022,0.38,-0.288,71.35,-88.501,-207.703,0
0.903,0.339,-0.316,66.772,-78.552,-216.492,0
0.745,0.286,-0.324,54.321,-68.604,-225.464,0
0.605,0.208,-0.323,37.537,-65.002,-231.567,0
0.551,0.152,-0.336,21.973,-65.735,-234.497,0
0.468,0.125,-0.322,5.981,-62.805,-237.549,0
0.345,0.082,-0.251,-10.498,-54.932,-241.15,0
0.331,0,-0.271,-19.165,-49.622,-242.371,0
0.235,0.054,-0.263,-25.574,-43.03,-244.69,0
0.157,-0.031,-0.251,-38.33,-36.255,-241.943,0
0.114,-0.106,-0.273,-46.021,-32.776,-228.638,0
0.053,-0.138,-0.296,-49.194,-35.522,-217.59,0
0.051,-0.152,-0.347,-55.115,-44.434,-216.309,0
0.016,-0.206,-0.363,-67.139,-52.429,-220.642,1
-0.024,-0.224,-0.378,-80.933,-64.209,-225.037,1
-0.026,-0.203,-0.357,-93.994,-78.674,-228.882,1
-0.051,-0.223,-0.322,-108.765,-89.417,-230.286,1
-0.094,-0.289,-0.269,-120.667,-91.858,-224.304,1
-0.092,-0.323,-0.268,-125.427,-96.008,-215.149,1
-0.109,-0.303,-0.267,-130.066,-99.609,-208.496,1
-0.127,-0.312,-0.225,-137.939,-101.99,-199.28,1
-0.138,-0.33,-0.182,-144.958,-106.018,-190.796,1
-0.173,-0.346,-0.137,-150.024,-106.384,-182.861,1
-0.217,-0.342,-0.105,-153.137,-103.455,-172.119,1
-0.273,-0.33,-0.054,-156.677,-103.516,-160.095,1
-0.29,-0.326,0.003,-160.706,-108.032,-146.667,1
-0.292,-0.364,0.05,-164.246,-111.328,-132.507,1
-0.293,-0.353,0.093,-164.734,-110.901,-118.652,1
-0.277,-0.339,0.125,-165.039,-109.131,-105.53,1
-0.266,-0.309,0.161,-167.847,-105.957,-94.727,1
-0.285,-0.283,0.243,-173.401,-99.182,-85.266,1
-0.303,-0.264,0.329,-179.626,-88.623,-74.402,1
-0.238,-0.268,0.435,-183.96,-73.181,-59.326,1
-0.318,-0.209,0.514,-186.035,-53.284,-43.762,1
-0.324,-0.213,0.622,-186.707,-33.813,-20.63,1
-0.293,-0.2,0.726,-183.594,-22.949,-1.465,1
-0.332,-0.128,0.804,-177.246,-17.151,15.808,1
-0.38,-0.076,0.903,-173.035,-11.963,35.522,1
-0.362,-0.101,0.976,-167.48,-16.235,60.242,1
-0.319,-0.059,1.023,-157.776,-26.672,77.515,1
-0.275,-0.018,1.061,-147.095,-33.813,96.741,1
-0.19,-0.035,1.087,-137.573,-37.231,115.54,1
-0.129,0.027,1.088,-127.197,-36.743,126.404,1
-0.049,0.107,1.109,-120.789,-29.846,134.033,1
0.032,0.188,1.159,-120.667,-15.442,141.296,1
0.09,0.228,1.255,-125.244,5.798,149.963,1
0.018,0.22,1.359,-127.93,27.161,161.316,1
0.005,0.266,1.485,-123.657,39.368,169.189,1
-0.07,0.224,1.61,-111.206,38.696,195.557,1
0.059,0.305,1.612,-94.788,17.334,208.313,1
0.136,0.319,1.662,-77.087,3.479,237.183,1
0.22,0.193,1.694,-60.486,-3.357,237.122,1
0.208,0.349,1.67,-35.4,-9.888,226.624,1
0.225,0.33,1.671,-21.484,-14.709,230.103,1
0.283,0.296,1.66,-11.536,-22.888,230.713,1
0.309,0.352,1.623,1.282,-30.273,229.553,1
0.358,0.328,1.577,11.475,-34.241,232.056,1
0.4,0.35,1.53,23.499,-34.485,234.07,1
0.451,0.355,1.484,34.973,-32.043,238.708,1
0.514,0.391,1.437,44.067,-28.198,241.15,1
0.533,0.399,1.391,48.34,-22.095,244.141,1
0.525,0.373,1.365,49.011,-12.634,244.69,1
0.496,0.367,1.344,50.476,-5.554,239.685,1
0.507,0.359,1.316,52.917,-3.54,234.985,1
0.515,0.395,1.298,56.213,-3.967,232.239,1
0.496,0.4,1.284,59.204,-6.897,235.046,1
0.561,0.358,1.269,61.951,-12.573,229.858,1
0.501,0.479,1.266,68.848,-15.625,226.501,1
0.511,0.406,1.272,70.435,-22.278,231.934,1
0.591,0.399,1.228,72.937,-31.128,223.145,1
0.622,0.464,1.193,78.552,-30.579,213.257,1
0.594,0.473,1.179,80.261,-23.682,211.609,1
0.567,0.479,1.151,80.933,-21.606,214.661,1
0.549,0.405,1.142,79.651,-21.545,213.379,1
0.52,0.401,1.117,80.566,-23.926,201.782,1
0.484,0.393,1.084,82.275,-26.794,190.735,1
0.431,0.372,1.066,82.825,-30.762,180.481,1
0.38,0.337,1.07,84.412,-39.063,169.8,1
0.482,0.421,1.038,87.341,-51.331,152.832,1
0.586,0.502,1.018,91.248,-54.626,154.419,1
0.731,0.359,0.981,88.745,-52.185,160.522,1
0.738,0.536,0.925,91.431,-34.668,149.109,1
0.706,0.506,0.911,86.731,-18.738,152.954,1
0.692,0.475,0.851,77.271,-11.841,154.724,1
0.732,0.408,0.838,72.937,-2.319,154.846,1
0.726,0.379,0.843,71.228,3.235,146.667,1
0.665,0.367,0.776,70.496,4.761,136.536,1
0.727,0.345,0.785,66.467,8.057,123.108,1
0.654,0.322,0.685,60.303,-0.427,104.797,1
0.568,0.423,0.697,53.894,-8.85,86.487,1
0.589,0.233,0.691,41.748,-24.048,79.956,1
0.642,0.325,0.643,34.973,-38.696,64.27,1
0.722,0.249,0.673,27.832,-28.992,49.622,1
0.625,0.311,0.679,23.499,-22.644,34.485,1
0.561,0.341,0.68,19.958,-15.686,24.78,1
0.588,0.254,0.707,17.029,-12.146,21.973,1
0.603,0.303,0.724,14.587,-7.996,11.902,1
0.538,0.369,0.711,10.986,-3.418,7.751,1
0.554,0.249,0.736,2.747,2.625,7.935,1
0.531,0.286,0.741,-2.197,8.606,2.625,1
0.493,0.249,0.752,-7.507,14.954,-0.366,1
0.476,0.211,0.762,-12.573,16.907,-3.662,1
0.467,0.218,0.762,-15.503,17.761,-7.812,1
1.726,0.928,-0.048,66.589,6.47,-82.275,0
1.808,0.875,-0.033,62.256,-3.235,-100.83,0
1.831,0.854,0,67.566,-16.846,-120.239,0
1.89,0.838,-0.037,77.698,-41.321,-139.526,0
2.026,0.782,-0.054,82.458,-66.101,-153.259,0
2.084,0.708,-0.045,88.074,-80.75,-161.499,0
2.142,0.67,-0.059,95.886,-83.984,-169.312,0
2.126,0.702,-0.076,100.525,-73.975,-179.504,0
2.035,0.709,-0.085,95.703,-53.04,-190.796,0
1.931,0.676,-0.073,84.106,-25.513,-202.576,0
1.783,0.608,-0.059,71.167,-2.197,-213.196,0
1.628,0.559,-0.022,61.34,15.625,-221.13,0
1.491,0.527,-0.042,53.223,28.137,-228.333,0
1.343,0.391,-0.055,43.518,38.879,-238.22,0
1.218,0.413,-0.076,40.222,44.617,-245.3,0
1.041,0.365,-0.102,34.729,48.523,-251.953,0
0.861,0.336,-0.071,29.541,50.11,-255.798,0
0.744,0.272,-0.055,26.855,47.729,-259.216,0
0.601,0.21,-0.089,29.114,43.823,-263.977,0
0.5,0.175,-0.14,32.776,35.4,-271.423,1
0.441,0.163,-0.172,34.668,22.827,-278.381,1
0.38,0.159,-0.195,28.32,11.475,-284.79,1
0.3,0.068,-0.186,16.357,1.526,-287.659,1
0.273,-0.012,-0.184,5.432,-9.46,-295.532,1
0.175,0.006,-0.17,-2.747,-17.883,-300.293,1
0.079,-0.075,-0.108,-8.85,-23.254,-297.119,1
0.011,-0.11,-0.11,-9.277,-26.794,-296.814,1
-0.014,-0.115,-0.122,-5.371,-24.048,-279.358,1
-0.055,-0.167,-0.135,-7.141,-18.921,-262.878,1
-0.076,-0.195,-0.16,-12.451,-13.794,-251.465,1
-0.172,-0.219,-0.149,-20.325,-7.874,-235.718,1
-0.209,-0.286,-0.142,-30.701,-7.019,-226.257,1
-0.252,-0.293,-0.152,-39.001,-6.592,-215.271,1
-0.341,-0.327,-0.159,-48.95,-9.216,-203.064,1
-0.25,-0.378,-0.197,-59.937,-16.785,-200.012,1
-0.359,-0.328,-0.203,-69.763,-17.944,-187.561,1
-0.396,-0.384,-0.186,-84.29,-23.193,-175.659,1
-0.39,-0.4,-0.164,-96.558,-35.95,-166.626,1
-0.386,-0.416,-0.124,-105.286,-45.837,-156.494,1
-0.394,-0.435,-0.103,-110.657,-51.697,-146.606,1
-0.38,-0.424,-0.057,-113.708,-54.016,-135.864,1
-0.394,-0.466,-0.022,-113.708,-54.382,-120.361,1
-0.404,-0.483,-0.016,-109.497,-53.467,-101.44,1
-0.434,-0.445,-0.005,-104.065,-52.185,-80.261,1
-0.368,-0.487,0.007,-102.661,-53.772,-54.993,1
-0.377,-0.465,0.025,-103.333,-52.429,-42.175,1
-0.406,-0.422,0.046,-105.835,-50.781,-25.146,1
-0.395,-0.446,0.089,-112.122,-50.415,-6.714,1
-0.401,-0.416,0.134,-118.347,-52.307,8.789,1
-0.374,-0.387,0.181,-123.596,-56.458,26.917,1
-0.323,-0.391,0.264,-130.92,-60.547,39.795,1
-0.286,-0.387,0.337,-136.047,-62.256,46.936,1
-0.251,-0.355,0.398,-136.78,-58.838,55.115,1
-0.201,-0.339,0.454,-136.23,-49.622,68.42,1
-0.156,-0.316,0.497,-134.949,-35.583,84.229,1
-0.116,-0.307,0.538,-132.874,-20.752,101.868,1
-0.078,-0.273,0.592,-130.432,-8.85,115.784,1
-0.047,-0.222,0.651,-129.517,1.282,125.854,1
-0.026,-0.204,0.743,-131.714,11.108,135.986,1
-0.003,-0.157,0.825,-134.094,17.151,145.63,1
0.021,-0.111,0.898,-135.315,20.447,155.273,1
0.063,-0.131,0.986,-134.46,21.301,162.292,1
0.045,-0.136,1.07,-126.831,20.508,177.002,1
0.089,-0.158,1.126,-116.211,10.742,178.04,1
0.154,-0.054,1.162,-99.609,4.7,180.908,1
0.255,-0.057,1.193,-83.679,-2.075,199.524,1
0.286,-0.011,1.225,-70.19,-4.883,209.473,1
0.327,0.057,1.253,-58.594,-8.301,220.52,1
0.387,0.069,1.293,-52.49,-11.353,224.976,1
0.398,0.085,1.334,-46.814,-11.23,226.074,1
0.427,0.141,1.375,-39.734,-9.705,230.408,1
0.497,0.115,1.409,-34.912,-8.911,234.314,1
0.568,0.103,1.438,-27.771,-7.141,237.61,1
0.589,0.05,1.427,-15.625,-5.859,237.671,1
0.59,0.144,1.405,3.174,-4.883,234.863,1
0.637,0.154,1.362,18.738,-4.822,241.028,1
0.622,0.209,1.328,30.884,-8.24,250.305,1
0.635,0.221,1.297,40.222,-14.893,261.047,1
0.731,0.219,1.254,48.462,-25.635,267.517,1
0.836,0.161,1.226,58.167,-27.771,265.259,1
0.872,0.234,1.171,69.397,-24.048,250.61,1
0.894,0.262,1.117,76.782,-14.893,240.173,1
0.902,0.277,1.079,79.651,-7.996,231.018,1
0.881,0.267,1.049,79.529,-3.784,221.802,1
0.843,0.292,1.022,79.163,-3.174,214.233,1
0.827,0.282,1.008,78.735,-7.019,210.144,1
0.805,0.327,1.003,77.454,-16.052,204.651,1
0.825,0.298,0.998,75.5,-29.175,200.134,1
0.777,0.255,0.991,75.5,-42.297,193.542,1
0.819,0.295,0.99,77.942,-54.016,179.687,1
0.838,0.299,0.983,80.322,-61.218,170.837,1
0.833,0.311,0.975,81.665,-62.195,161.438,1
0.795,0.361,0.943,83.74,-60.486,156.006,1
0.753,0.328,0.924,83.13,-59.937,156.799,1
0.704,0.318,0.929,82.092,-61.646,154.846,1
0.712,0.29,0.906,82.581,-66.772,147.522,1
0.683,0.344,0.892,83.923,-67.2,138.733,1
0.631,0.39,0.865,80.017,-68.909,136.597,1
0.652,0.336,0.849,71.228,-73.364,138.123,1
0.7,0.333,0.823,66.589,-77.393,132.141,1
0.675,0.348,0.816,65.125,-76.172,122.986,1
0.638,0.396,0.819,63.782,-73.242,116.089,1
0.671,0.359,0.789,62.744,-73.486,107.361,1
0.651,0.404,0.791,63.904,-70.801,108.398,1
0.585,0.309,0.815,58.35,-68.237,107.605,1
0.617,0.319,0.808,59.387,-72.937,89.417,1
0.625,0.458,0.798,62.805,-73.608,92.773,1
0.699,0.296,0.8,53.223,-70.984,95.093,1
0.798,0.321,0.789,52.307,-64.575,87.463,1
0.792,0.306,0.839,49.377,-52.307,81.055,1
0.722,0.459,0.795,43.884,-43.396,64.453,1
0.848,0.452,0.723,33.325,-36.987,73.486,1
0.861,0.23,0.671,20.508,-26.001,70.923,1
0.702,0.565,0.729,21.545,-3.906,59.753,1
0.757,0.336,0.685,5.615,-12.329,62.988,1
0.809,0.203,0.735,1.099,-7.874,60.12,1
0.774,0.353,0.753,5.676,-6.592,34.119,1
0.652,0.294,0.784,3.113,-7.69,31.494,1
0.733,0.328,0.783,-2.136,-15.808,19.165,1
1.565,0.523,-0.605,37.598,-52.002,-85.754,0
1.554,0.508,-0.597,32.043,-54.382,-99.915,0
1.539,0.495,-0.573,28.259,-56.091,-114.868,0
1.537,0.487,-0.557,26.55,-60.364,-129.395,0
1.558,0.474,-0.557,26.245,-69.519,-143.188,0
1.58,0.473,-0.567,25.269,-80.078,-158.386,0
1.566,0.437,-0.58,21.729,-88.989,-174.744,0
1.561,0.405,-0.578,16.174,-91.003,-191.223,0
1.552,0.371,-0.575,9.644,-86.121,-205.383,0
1.493,0.317,-0.506,2.991,-72.021,-215.271,0
1.404,0.255,-0.451,1.404,-55.786,-219.177,0
1.292,0.21,-0.426,5.615,-48.157,-218.933,0
1.214,0.198,-0.41,11.169,-48.889,-218.506,0
1.099,0.175,-0.392,11.23,-54.749,-219.055,0
0.973,0.113,-0.352,6.348,-62.622,-222.839,0
0.879,0.051,-0.323,2.93,-71.106,-228.271,0
0.83,0.028,-0.326,3.418,-76.904,-232.666,0
0.723,-0.04,-0.303,1.892,-77.942,-243.103,0
0.618,-0.054,-0.283,2.38,-81.909,-252.93,0
0.536,-0.012,-0.255,6.104,-77.332,-247.375,0
0.594,-0.113,-0.336,9.033,-68.115,-231.873,0
0.533,-0.009,-0.338,8.179,-60.181,-224.243,0
0.454,-0.091,-0.292,-3.906,-42.847,-222.839,0
0.378,-0.149,-0.293,-12.695,-31.86,-217.041,0
0.326,-0.177,-0.296,-18.921,-23.804,-211.243,0
0.231,-0.25,-0.297,-26.794,-15.686,-208.374,0
0.147,-0.309,-0.308,-30.334,-13.428,-205.261,0
0.106,-0.31,-0.338,-30.334,-19.836,-200.073,0
0.13,-0.304,-0.332,-32.776,-31.616,-193.848,0
0.081,-0.33,-0.303,-39.978,-44.739,-187.927,1
0.075,-0.376,-0.294,-48.767,-59.998,-184.692,1
0.061,-0.4,-0.314,-57.495,-72.388,-184.998,1
0.067,-0.396,-0.333,-69.58,-82.52,-188.049,1
-0.046,-0.38,-0.302,-86.731,-90.515,-193.42,1
-0.065,-0.474,-0.269,-101.868,-104.98,-191.956,1
-0.109,-0.48,-0.237,-108.765,-122.131,-191.589,1
-0.11,-0.505,-0.187,-110.046,-138.794,-189.941,1
-0.126,-0.484,-0.18,-109.009,-149.414,-187.683,1
-0.223,-0.469,-0.172,-108.948,-155.212,-183.105,1
-0.209,-0.463,-0.103,-109.924,-160.522,-170.532,1
-0.24,-0.488,-0.063,-111.511,-168.64,-158.813,1
-0.212,-0.479,-0.021,-109.375,-170.41,-148.315,1
-0.229,-0.441,0.011,-108.704,-165.955,-137.085,1
-0.208,-0.53,0.049,-110.596,-157.654,-123.718,1
-0.295,-0.449,0.059,-110.291,-147.217,-120.789,1
-0.317,-0.422,0.091,-111.816,-138.489,-102.478,1
-0.303,-0.478,0.14,-118.774,-130.676,-87.83,1
-0.34,-0.439,0.18,-122.437,-119.385,-77.881,1
-0.379,-0.414,0.233,-125.61,-107.666,-63.843,1
-0.392,-0.412,0.296,-131.042,-99.976,-50.964,1
-0.436,-0.385,0.357,-135.681,-96.069,-41.382,1
-0.47,-0.372,0.444,-141.174,-96.741,-33.325,1
-0.491,-0.384,0.523,-145.813,-99.609,-20.691,1
-0.474,-0.387,0.592,-145.142,-99.365,-4.578,1
-0.483,-0.365,0.661,-139.587,-95.093,15.808,1
-0.485,-0.357,0.727,-131.104,-91.553,38.208,1
-0.446,-0.345,0.788,-117.92,-91.98,56.885,1
-0.386,-0.269,0.811,-104.431,-90.332,68.481,1
-0.394,-0.187,0.837,-98.45,-82.031,77.942,1
-0.407,-0.149,0.876,-101.501,-73.669,89.05,1
-0.379,-0.15,0.926,-108.887,-67.505,100.464,1
-0.362,-0.135,0.965,-115.906,-60.608,109.863,1
-0.397,-0.116,1.026,-122.681,-53.711,116.577,1
-0.436,-0.138,1.106,-127.502,-52.002,122.925,1
-0.433,-0.152,1.148,-125.61,-56.335,131.531,1
-0.415,-0.148,1.181,-116.76,-64.331,143.555,1
-0.388,-0.128,1.206,-106.018,-71.228,158.386,1
-0.392,-0.093,1.249,-95.032,-77.148,174.194,1
-0.364,-0.063,1.274,-86.243,-85.938,187.134,1
-0.333,-0.055,1.28,-80.261,-92.102,195.984,1
-0.345,-0.011,1.282,-75.195,-95.764,201.538,1
-0.323,0.007,1.295,-73.181,-100.098,206.116,1
-0.263,0.021,1.313,-72.571,-103.455,209.9,1
-0.25,0.025,1.331,-72.51,-103.455,213.745,1
-0.241,0.042,1.359,-71.716,-101.379,218.079,1
-0.231,0.048,1.392,-71.472,-99.976,221.741,1
-0.259,0.056,1.419,-71.289,-100.159,224.243,1
-0.282,0.069,1.448,-69.702,-104.553,225.525,1
-0.277,0.096,1.474,-68.542,-112.915,224.121,1
-0.242,0.101,1.495,-68.726,-121.155,223.145,1
-0.15,0.068,1.548,-66.467,-125.061,222.412,1
-0.175,0.16,1.552,-62.622,-125.366,221.802,1
-0.061,0.057,1.635,-60.608,-124.207,223.755,1
-0.061,0.268,1.594,-57.922,-124.695,220.093,1
-0.062,0.122,1.653,-60.364,-116.577,233.154,1
-0.023,0.017,1.632,-53.894,-117.981,224.854,1
-0.129,0.267,1.611,-36.011,-113.098,223.083,1
-0.174,0.099,1.606,-33.203,-116.272,238.77,1
-0.123,0.139,1.591,-24.109,-132.141,239.38,1
0.121,0.246,1.551,-11.597,-140.93,236.633,1
0.276,0.284,1.503,-10.437,-131.226,239.563,1
0.401,0.258,1.46,-15.076,-106.934,239.014,1
0.492,0.254,1.402,-17.517,-80.933,234.253,1
0.553,0.276,1.323,-20.752,-52.185,223.206,1
0.539,0.348,1.242,-26.55,-28.381,218.262,1
0.535,0.205,1.192,-36.804,-12.024,213.562,1
0.501,0.166,1.128,-37.72,-7.385,201.05,1
0.53,0.281,1.031,-30.884,-9.399,184.631,1
0.578,0.249,1.016,-28.015,-13.916,176.331,1
0.787,0.366,1.007,-30.09,-22.217,156.067,1
1.05,0.435,0.996,-35.034,-15.442,144.531,1
1.17,0.479,1.017,-47.363,13.855,134.338,1
1.201,0.42,1.031,-61.34,49.133,126.587,1
1.22,0.343,1.013,-68.604,86.121,114.319,1
1.11,0.351,0.98,-66.956,119.934,97.351,1
0.958,0.317,0.95,-65.369,136.963,82.642,1
0.821,0.259,0.952,-64.88,134.644,70.251,1
0.739,0.14,0.945,-59.143,110.962,60.73,1
0.642,0.101,0.929,-45.105,81.116,43.457,1
0.594,0.206,0.923,-31.799,45.471,27.771,1
0.493,0.013,0.963,-25.818,16.602,15.198,1
0.482,0.068,0.942,-11.353,-10.376,-9.644,1
0.374,0.051,0.985,0.977,-29.297,-22.583,1
0.338,0.14,0.993,1.831,-46.875,-29.907,1
0.299,-0.002,1.031,-0.549,-47.18,-29.602,1
0.21,0.04,1.055,4.028,-43.64,-37.476,1
0.115,0.08,1.076,5.615,-35.767,-40.222,1
0.061,0.027,1.09,1.831,-28.137,-38.879,1
0.01,0.009,1.096,-0.977,-19.287,-36.011,1
1.557,0.66,-0.428,93.506,-86.426,-75.806,0
1.598,0.667,-0.407,82.886,-89.355,-86.548,0
1.645,0.634,-0.407,69.214,-86.67,-97.9,0
1.635,0.579,-0.43,56.641,-80.75,-109.985,0
1.595,0.568,-0.462,46.448,-75.867,-119.385,0
1.564,0.528,-0.469,35.645,-72.144,-126.221,0
1.514,0.472,-0.438,27.71,-70.496,-130.127,0
1.535,0.416,-0.387,28.442,-71.533,-131.775,0
1.555,0.421,-0.372,38.513,-72.937,-134.277,0
1.54,0.456,-0.371,48.95,-75.073,-139.587,0
1.496,0.457,-0.372,51.941,-75.256,-147.522,0
1.453,0.444,-0.351,48.035,-71.472,-156.311,0
1.4,0.403,-0.315,39.734,-65.796,-165.771,0
1.353,0.354,-0.302,31.311,-58.35,-175.171,0
1.248,0.323,-0.279,25.146,-49.561,-184.021,0
1.113,0.269,-0.226,19.165,-43.274,-192.688,0
1.012,0.198,-0.186,15.198,-43.152,-198.425,0
0.934,0.149,-0.174,15.564,-45.959,-202.82,0
0.874,0.103,-0.153,19.104,-51.636,-207.581,0
0.827,0.079,-0.151,23.071,-58.289,-213.562,0
0.789,0.05,-0.164,25.33,-60.852,-219.482,0
0.706,0.012,-0.174,24.963,-57.007,-223.328,0
0.631,-0.003,-0.185,22.156,-50.476,-222.9,0
0.552,-0.041,-0.177,16.846,-45.715,-218.445,0
0.506,-0.079,-0.183,10.376,-42.236,-213.013,0
0.489,-0.096,-0.198,4.456,-37.17,-204.712,0
0.439,-0.12,-0.211,-5.493,-30.579,-196.35,0
0.347,-0.179,-0.2,-21.301,-23.376,-193.787,0
0.305,-0.286,-0.248,-34.79,-22.461,-195.19,0
0.248,-0.224,-0.247,-41.687,-25.208,-197.937,0
0.195,-0.283,-0.221,-50.659,-25.33,-202.881,0
0.175,-0.312,-0.215,-52.734,-24.902,-202.209,0
0.114,-0.335,-0.205,-49.377,-26.001,-195.435,0
0.083,-0.352,-0.224,-44.8,-26.428,-185.364,1
0.054,-0.353,-0.25,-42.175,-27.161,-174.927,1
-0.004,-0.378,-0.267,-44.373,-29.114,-165.222,1
0.068,-0.373,-0.286,-47.791,-33.997,-154.541,1
0.026,-0.361,-0.311,-54.321,-36.926,-145.02,1
-0.023,-0.353,-0.319,-67.688,-40.1,-139.465,1
-0.06,-0.381,-0.311,-86.06,-50.659,-140.686,1
-0.082,-0.387,-0.295,-104.858,-65.857,-148.132,1
-0.096,-0.398,-0.234,-121.643,-81.421,-156.128,1
-0.102,-0.385,-0.183,-133.362,-92.346,-159.546,1
-0.114,-0.409,-0.118,-138.855,-96.558,-154.114,1
-0.113,-0.429,-0.097,-137.817,-97.229,-142.456,1
-0.178,-0.391,-0.075,-135.01,-96.619,-130.981,1
-0.211,-0.412,-0.049,-136.047,-100.464,-119.507,1
-0.274,-0.366,-0.04,-136.841,-108.643,-107.422,1
-0.297,-0.318,0.004,-140.32,-117.676,-95.337,1
-0.292,-0.348,0.069,-151.001,-128.174,-88.379,1
-0.323,-0.301,0.144,-160.95,-137.573,-84.656,1
-0.282,-0.303,0.244,-169.617,-139.587,-78.735,1
-0.305,-0.274,0.346,-177.551,-132.874,-72.571,1
-0.348,-0.275,0.426,-182.373,-119.202,-57.922,1
-0.356,-0.282,0.494,-183.228,-104.309,-36.194,1
-0.365,-0.274,0.588,-180.969,-89.478,-13.611,1
-0.378,-0.246,0.709,-173.828,-75.928,12.024,1
-0.381,-0.192,0.81,-162.781,-66.284,37.476,1
-0.381,-0.126,0.903,-151.062,-60.303,58.594,1
-0.337,-0.058,0.994,-143.372,-55.237,74.951,1
-0.325,-0.018,1.068,-139.587,-50.049,90.454,1
-0.334,-0.005,1.145,-139.526,-46.936,101.501,1
-0.305,0,1.202,-137.573,-47.607,107.117,1
-0.303,0.035,1.27,-132.446,-47.913,113.159,1
-0.298,0.049,1.344,-126.221,-51.636,122.07,1
-0.268,0.039,1.416,-118.225,-58.594,134.033,1
-0.222,0.061,1.437,-104.492,-65.552,150.757,1
-0.208,0.1,1.442,-90.149,-68.542,171.021,1
-0.214,0.093,1.478,-78.857,-69.885,190.674,1
-0.243,0.126,1.5,-66.467,-76.355,208.13,1
-0.234,0.147,1.503,-56.824,-88.44,221.558,1
-0.222,0.21,1.511,-50.049,-99.976,233.826,1
-0.132,0.086,1.546,-43.884,-108.643,237.244,1
-0.085,0.175,1.516,-33.508,-107.422,232.483,1
-0.128,0.351,1.512,-31.433,-100.525,237.915,1
-0.133,0.244,1.514,-38.391,-109.741,268.25,1
-0.089,0.119,1.562,-39.978,-108.948,276.55,1
-0.129,0.18,1.568,-25.635,-118.164,275.635,1
-0.124,0.186,1.582,-11.536,-125.488,279.968,1
-0.082,0.188,1.579,1.221,-133.606,281.006,1
-0.082,0.246,1.573,9.888,-137.207,278.015,1
-0.09,0.241,1.587,11.169,-136.78,272.217,1
-0.014,0.259,1.578,10.071,-135.742,262.939,1
0.043,0.247,1.571,8.85,-124.878,254.517,1
0.039,0.306,1.567,6.653,-109.192,247.864,1
0.039,0.282,1.555,2.747,-96.313,246.216,1
0.047,0.342,1.538,-0.61,-90.088,245.056,1
0.031,0.292,1.534,-5.188,-84.29,248.596,1
-0.026,0.216,1.524,-7.08,-83.191,242.737,1
-0.061,0.243,1.49,-0.854,-87.036,231.506,1
-0.054,0.282,1.462,6.47,-96.191,223.755,1
0.059,0.346,1.414,9.888,-106.689,216.003,1
0.229,0.409,1.361,10.498,-106.689,213.074,1
0.32,0.403,1.311,7.202,-92.468,216.431,1
0.407,0.492,1.283,0.366,-74.158,215.637,1
0.515,0.395,1.22,-8.545,-57.8,214.905,1
0.608,0.47,1.146,-11.414,-32.349,204.712,1
0.554,0.47,1.087,-16.907,-8.423,197.998,1
0.503,0.372,1.03,-27.405,-0.732,184.753,1
0.54,0.422,0.941,-31.433,-5.737,170.532,1
0.601,0.296,0.93,-35.461,-9.644,156.189,1
0.568,0.399,0.937,-36.316,-21.973,123.657,1
0.707,0.441,0.964,-38.086,-37.476,101.44,1
0.742,0.516,0.985,-44.434,-42.664,89.355,1
0.887,0.419,0.992,-47.852,-37.72,86.121,1
0.853,0.437,0.994,-42.664,-17.151,79.895,1
0.828,0.423,0.961,-34.912,2.197,71.716,1
0.776,0.416,0.954,-30.396,18.372,62.5,1
0.704,0.32,0.975,-29.541,26.794,53.528,1
0.654,0.38,0.937,-26.367,25.269,39.246,1
0.603,0.232,0.97,-23.437,24.048,25.391,1
0.508,0.259,0.992,-20.813,11.78,8.667,1
0.453,0.19,0.999,-18.494,0.977,-4.944,1
0.373,0.21,1.017,-14.038,-10.742,-17.883,1
0.322,0.18,1.031,-11.047,-20.325,-28.87,1
0.282,0.158,1.03,-5.005,-24.597,-33.691,1
0.213,0.126,1.017,1.648,-23.743,-39.368,1
0.126,0.162,1.003,7.751,-21.423,-42.969,1
0.111,0.17,1.004,8.85,-16.785,-42.542,1
-0.233,0.349,2.014,-120.85,12.817,228.271,1
-0.206,0.384,2.076,-94.482,9.094,235.535,1
-0.145,0.438,2.085,-66.895,5.188,239.868,1
-0.064,0.483,2.069,-44.189,4.944,248.474,1
0.013,0.468,1.993,-27.588,6.836,260.01,1
0.128,0.4,1.893,-13.123,11.292,269.592,1
0.167,0.38,1.766,3.967,19.409,278.015,1
0.237,0.402,1.631,21.24,24.963,281.677,1
0.299,0.4,1.532,34.851,27.771,288.086,1
0.401,0.398,1.444,43.518,20.325,291.138,1
0.527,0.38,1.366,50.354,10.742,287.476,1
0.54,0.363,1.349,54.871,8.24,278.137,1
0.655,0.464,1.253,57.556,1.282,264.465,1
0.67,0.423,1.202,58.533,5.92,267.517,1
0.703,0.418,1.136,52.979,1.648,253.479,1
0.727,0.465,1.072,50.781,0.793,243.958,1
0.72,0.409,1.058,47.119,-0.916,235.046,1
0.682,0.407,1.039,47.302,-5.249,222.9,1
0.623,0.38,1.029,50.293,-10.742,207.092,1
0.543,0.448,1.031,55.054,-22.522,193.604,1
0.571,0.467,1.018,58.044,-36.926,189.331,1
0.581,0.486,1,60.486,-44.739,190.43,1
0.65,0.469,1.002,63.965,-47.058,190.002,1
0.586,0.631,0.983,66.589,-44.556,194.763,1
0.73,0.295,0.92,63.843,-45.959,188.66,1
0.683,0.572,0.871,72.754,-34.851,148.071,1
0.624,0.745,0.819,78.308,-14.771,164.246,1
0.611,0.427,0.823,64.331,-7.08,189.026,1
0.629,0.534,0.769,62.927,-9.583,184.57,1
0.676,0.445,0.761,62.683,-11.475,179.138,1
0.673,0.529,0.716,58.594,-17.517,161.438,1
0.679,0.554,0.724,50.171,-19.165,156.433,1
0.763,0.462,0.735,36.194,-23.804,144.958,1
0.815,0.511,0.729,31.128,-23.01,129.883,1
0.849,0.461,0.728,26.306,-15.503,117.126,1
0.838,0.496,0.751,24.17,-3.845,106.873,1
0.809,0.475,0.754,20.996,2.441,98.694,1
0.808,0.465,0.744,17.273,8.057,94.299,1
0.793,0.442,0.751,11.536,15.503,88.501,1
0.764,0.401,0.77,5.737,19.47,80.017,1
0.704,0.392,0.763,1.221,18.616,68.787,1
0.68,0.34,0.803,-2.869,13.55,55.908,1
0.626,0.349,0.839,-3.845,6.042,42.236,1
0.598,0.303,0.861,-5.005,-4.639,30.762,1
0.596,0.28,0.875,-2.441,-11.841,21.851,1
0.556,0.243,0.887,4.15,-12.878,11.902,1
0.497,0.266,0.891,13.245,-15.381,2.93,1
0.466,0.261,0.903,19.897,-18.433,-3.235,1
0.428,0.304,0.901,23.437,-21.24,-4.15,1
0.432,0.247,0.905,21.606,-21.606,-1.77,1
0.409,0.238,0.897,20.508,-19.043,-2.014,1
0.389,0.23,0.884,19.836,-14.709,-3.601,1
0.363,0.229,0.879,17.09,-10.925,-5.127,1
0.351,0.194,0.879,12.939,-7.507,-7.263,1
0.324,0.19,0.881,10.315,-4.944,-11.353,1
0.306,0.203,0.875,8.911,-3.418,-13.55,1
0.293,0.192,0.878,6.653,-0.427,-14.282,1
0.275,0.186,0.881,5.981,1.465,-14.709,1
0.259,0.178,0.886,7.141,1.16,-15.015,1
0.253,0.181,0.887,8.972,-0.854,-14.709,1
0.26,0.191,0.878,10.193,-3.784,-14.343,1
0.269,0.19,0.884,10.132,-6.165,-13.672,1
0.261,0.185,0.897,9.644,-7.507,-13.916,1
0.253,0.178,0.91,9.888,-8.667,-14.587,1
0.267,0.178,0.921,9.827,-9.583,-15.381,1
0.272,0.187,0.911,9.583,-9.033,-16.296,1
0.258,0.186,0.918,8.606,-6.042,-16.602,1
0.257,0.18,0.913,6.592,-5.554,-15.503,1
0.258,0.171,0.912,4.944,-2.563,-14.099,1
0.235,0.175,0.907,4.028,-1.16,-13.489,1
0.237,0.16,0.906,3.479,-1.709,-12.634,1
0.216,0.155,0.91,3.723,-3.235,-12.207,1
0.219,0.153,0.913,4.883,-5.554,-12.146,1
0.241,0.137,0.918,6.409,-7.141,-11.23,1
0.235,0.153,0.91,8.24,-7.568,-11.047,1
0.24,0.159,0.905,9.705,-6.592,-8.24,1
0.249,0.15,0.907,9.033,-3.601,-6.714,1
0.241,0.148,0.896,9.766,-1.77,-6.409,1
0.253,0.153,0.882,9.766,-0.183,-5.188,1
0.261,0.15,0.885,7.507,2.747,-4.456,1
0.253,0.148,0.884,4.761,3.723,-4.15,1
0.255,0.132,0.888,1.953,3.662,-4.211,1
0.246,0.14,0.89,0.732,2.319,-4.822,1
0.247,0.138,0.894,-0.183,0.366,-5.127,1
0.253,0.13,0.899,-0.732,-1.648,-5.188,1
0.258,0.137,0.904,0.061,-2.808,-5.188,1
0.259,0.13,0.906,1.221,-2.93,-5.005,1
0.247,0.135,0.915,3.113,-2.38,-4.517,1
0.251,0.131,0.921,4.944,-2.625,-3.418,1
0.257,0.141,0.917,6.653,-3.235,-2.563,1
0.265,0.145,0.913,7.324,-2.808,-1.587,1
0.267,0.143,0.917,6.042,-1.77,-1.099,1
0.269,0.148,0.912,3.845,-1.221,-1.099,1
0.277,0.141,0.909,0.793,-0.549,-1.404,1
0.272,0.145,0.908,-1.831,0.183,-2.136,1
0.275,0.138,0.911,-3.967,1.16,-2.258,1
0.269,0.137,0.92,-4.822,2.563,-2.258,1
0.26,0.137,0.928,-4.089,3.235,-2.38,1
0.259,0.138,0.925,-1.77,3.113,-1.892,1
0.26,0.136,0.925,0.732,3.113,-0.732,1
0.256,0.137,0.924,3.296,2.197,-0.061,1
0.266,0.14,0.928,5.31,0.122,0.732,1
0.273,0.141,0.924,6.592,-1.099,1.16,1
0.283,0.142,0.916,6.836,-2.014,0.61,1
0.286,0.143,0.908,6.042,-2.502,-0.61,1
0.288,0.143,0.903,4.456,-2.563,-1.892,1
0.291,0.139,0.899,2.869,-2.075,-2.991,1
0.286,0.14,0.901,1.282,-1.038,-3.845,1
0.296,0.136,0.902,0.793,0.916,-4.211,1
0.298,0.14,0.901,0.916,4.15,-4.028,1
0.284,0.138,0.902,0.916,7.812,-3.662,1
0.279,0.136,0.907,0.671,10.01,-3.113,1
0.276,0.138,0.907,0.916,10.742,-2.563,1
0.274,0.13,0.909,0.732,10.498,-2.197,1
0.282,0.131,0.907,0.671,9.399,-2.319,1
0.286,0.13,0.907,0.305,7.751,-3.052,1
0.29,0.131,0.909,-0.61,6.897,-4.089,1
0.297,0.134,0.91,-1.587,7.202,-4.761,1
0.304,0.136,0.911,-2.441,8.667,-5.066,1
1.478,0.689,0.328,22.034,67.566,-39.673,0
1.501,0.686,0.333,23.376,67.078,-50.476,0
1.539,0.694,0.327,27.832,63.354,-60.12,0
1.591,0.711,0.302,34.729,56.763,-68.42,0
1.642,0.724,0.272,41.443,51.758,-76.477,0
1.668,0.731,0.239,46.265,49.316,-85.876,0
1.667,0.724,0.199,49.683,49.011,-96.68,0
1.659,0.713,0.142,52.795,50.232,-107.788,0
1.664,0.704,0.07,54.26,52.49,-119.69,0
1.65,0.707,0.031,51.147,56.03,-133.301,0
1.58,0.685,0.046,43.274,59.998,-147.766,0
1.53,0.645,0.031,34.546,64.697,-161.621,0
1.46,0.617,0.017,27.466,69.885,-174.377,0
1.365,0.573,0.009,21.24,75.317,-185.12,0
1.278,0.524,-0.008,17.334,76.538,-193.176,0
1.164,0.481,-0.041,17.09,75.623,-199.829,0
1.037,0.43,-0.073,17.7,72.083,-205.139,0
0.947,0.379,-0.099,18.982,64.331,-209.534,0
0.86,0.336,-0.148,21.118,53.528,-213.745,0
0.749,0.311,-0.207,20.813,42.053,-219.116,0
0.682,0.28,-0.241,17.09,31.433,-225.647,0
0.608,0.225,-0.263,11.047,22.522,-231.812,0
0.536,0.192,-0.281,2.991,13.916,-240.479,0
0.483,0.17,-0.314,-6.104,9.338,-245.605,0
0.426,0.117,-0.326,-16.418,4.944,-243.713,0
0.379,0.105,-0.321,-25.33,-0.122,-240.662,0
0.344,0.043,-0.324,-34.912,-4.7,-238.342,0
0.288,-0.025,-0.313,-41.809,-8.789,-238.342,0
0.275,-0.038,-0.29,-43.213,-10.986,-237.671,0
0.21,-0.094,-0.284,-41.565,-7.446,-235.535,1
0.138,-0.11,-0.313,-36.987,-3.357,-231.628,1
0.087,-0.127,-0.339,-33.63,-3.174,-221.436,1
0.051,-0.152,-0.358,-36.011,-7.385,-209.961,1
0.094,-0.161,-0.39,-41.931,-10.681,-197.998,1
0.105,-0.205,-0.416,-53.284,-10.925,-190.43,1
0.041,-0.202,-0.438,-68.909,-9.216,-186.157,1
-0.035,-0.218,-0.428,-90.332,-12.939,-188.11,1
-0.104,-0.231,-0.377,-114.99,-23.804,-193.848,1
-0.152,-0.255,-0.311,-135.559,-39.856,-199.402,1
-0.169,-0.276,-0.267,-147.766,-52.917,-201.05,1
-0.181,-0.291,-0.238,-153.259,-61.523,-195.618,1
-0.232,-0.277,-0.184,-154.114,-66.284,-182.373,1
-0.25,-0.309,-0.135,-154.175,-74.28,-168.701,1
-0.295,-0.322,-0.081,-151.978,-81.848,-155.579,1
-0.29,-0.303,-0.062,-147.705,-89.783,-140.259,1
-0.275,-0.278,-0.041,-146.606,-97.351,-127.686,1
-0.314,-0.272,-0.017,-151.489,-103.21,-117.859,1
-0.338,-0.262,0.043,-161.316,-108.398,-109.375,1
-0.371,-0.289,0.112,-173.95,-112.488,-101.135,1
-0.37,-0.294,0.203,-185.303,-112.854,-94.788,1
-0.366,-0.262,0.293,-193.237,-107.91,-85.51,1
-0.417,-0.284,0.424,-198.914,-96.375,-71.472,1
-0.452,-0.306,0.533,-196.96,-87.28,-49.683,1
-0.463,-0.259,0.618,-188.232,-83.496,-24.719,1
-0.408,-0.206,0.717,-179.993,-80.139,0.244,1
-0.361,-0.177,0.811,-173.523,-75.928,20.02,1
-0.34,-0.115,0.891,-169.8,-70.801,30.212,1
-0.313,-0.032,0.978,-172.058,-59.631,39.124,1
-0.284,-0.031,1.083,-178.711,-44.373,52.856,1
-0.225,-0.011,1.18,-180.42,-28.564,67.322,1
-0.244,0.016,1.253,-178.833,-10.62,84.961,1
-0.201,0.005,1.338,-174.927,6.531,106.262,1
-0.178,0.018,1.425,-164.246,18.738,129.15,1
-0.133,0.074,1.488,-147.949,24.048,150.818,1
-0.096,0.094,1.549,-134.277,24.353,167.908,1
-0.066,0.102,1.602,-119.141,20.935,181.946,1
-0.033,0.134,1.617,-101.624,12.024,192.2,1
-0.027,0.14,1.658,-87.402,1.221,196.228,1
0.021,0.166,1.678,-73.547,-10.986,196.96,1
0.048,0.129,1.688,-57.556,-25.024,204.529,1
0.119,0.16,1.675,-42.48,-39.551,200.623,1
0.141,0.12,1.68,-27.954,-45.898,207.214,1
0.292,0.208,1.526,-13.428,-47.18,200.562,1
0.183,0.261,1.543,2.38,-34.912,219.36,1
0.285,0.289,1.456,5.005,-45.41,240.295,1
0.433,0.119,1.437,8.728,-40.71,266.174,1
0.464,0.15,1.389,19.348,-38.635,266.724,1
0.493,0.136,1.374,30.334,-31.006,258.423,1
0.492,0.314,1.34,38.086,-24.109,247.375,1
0.497,0.195,1.332,35.767,-19.775,244.751,1
0.475,0.155,1.339,33.203,-22.583,227.783,1
0.523,0.288,1.331,31.799,-31.616,205.811,1
0.557,0.378,1.336,27.527,-37.598,203.979,1
0.586,0.303,1.347,23.254,-42.847,222.9,1
0.62,0.299,1.33,28.076,-44.617,233.032,1
0.596,0.272,1.321,38.94,-45.41,238.831,1
0.544,0.226,1.33,49.988,-48.279,227.539,1
0.451,0.28,1.299,64.27,-54.993,211.853,1
0.368,0.346,1.275,74.402,-65.613,207.886,1
0.37,0.236,1.242,78.003,-80.811,205.444,1
0.366,0.253,1.194,86.426,-95.215,192.749,1
0.368,0.34,1.134,95.032,-104.248,182.434,1
0.424,0.348,1.094,98.389,-107.239,188.049,1
0.484,0.398,1.033,95.764,-107.422,191.284,1
0.481,0.403,1.004,88.196,-102.844,194.275,1
0.481,0.391,0.99,77.942,-97.229,194.702,1
0.455,0.357,0.989,68.298,-92.834,190.735,1
0.411,0.32,0.993,61.34,-89.172,179.749,1
0.356,0.317,0.982,57.373,-89.05,168.274,1
0.353,0.315,0.98,54.688,-94.666,158.752,1
0.407,0.327,0.979,52.246,-102.966,151.184,1
0.505,0.344,0.995,50.11,-106.506,144.409,1
0.602,0.374,0.997,48.523,-101.868,139.16,1
0.672,0.38,0.977,45.898,-86.853,137.268,1
0.682,0.373,0.946,42.969,-65.491,137.207,1
0.686,0.351,0.938,39.185,-45.105,135.864,1
0.658,0.333,0.925,34.79,-31.006,131.653,1
0.655,0.313,0.914,30.273,-23.56,122.437,1
0.633,0.288,0.897,23.865,-20.63,112.915,1
0.586,0.169,0.959,16.052,-20.63,95.764,1
0.581,0.255,0.888,14.648,-34.119,78.552,1
0.653,0.18,0.933,10.254,-30.884,69.519,1
0.575,0.18,0.898,7.935,-30.029,54.688,1
0.638,0.185,0.898,10.437,-26.001,43.579,1
0.627,0.158,0.949,8.301,-13.855,31.921,1
0.599,0.211,0.891,9.766,-6.042,25.208,1
0.598,0.304,0.872,5.188,9.583,24.353,1
0.532,0.11,0.916,-7.812,28.015,24.109,1
0.457,0.205,0.895,-6.47,33.752,20.508,1
1.529,0.708,-0.356,25.391,22.583,-56.396,0
1.493,0.707,-0.374,22.827,21.179,-68.542,0
1.496,0.699,-0.386,20.874,18.799,-77.881,0
1.512,0.693,-0.4,21.057,17.029,-84.778,0
1.498,0.685,-0.406,23.132,15.442,-91.125,0
1.48,0.672,-0.406,26.55,12.939,-97.961,0
1.471,0.67,-0.433,30.701,8.24,-105.652,0
1.424,0.65,-0.456,32.227,1.831,-115.051,0
1.389,0.606,-0.469,30.945,-5.493,-126.099,0
1.336,0.568,-0.487,29.297,-13.611,-138.489,0
1.306,0.558,-0.482,25.696,-20.386,-151.733,0
1.261,0.533,-0.457,20.081,-22.766,-164.795,0
1.148,0.463,-0.424,13.855,-22.705,-176.453,0
1.063,0.413,-0.411,11.597,-23.682,-185.974,0
1.005,0.393,-0.4,12.146,-27.1,-194.214,0
0.921,0.347,-0.411,11.047,-32.166,-201.599,0
0.823,0.29,-0.423,8.606,-35.645,-208.069,0
0.725,0.242,-0.409,6.47,-37.415,-213.989,0
0.612,0.169,-0.393,4.944,-40.222,-218.811,0
0.574,0.104,-0.417,5.92,-47.729,-220.093,0
0.533,0.08,-0.452,7.08,-57.312,-222.29,0
0.448,0.051,-0.468,6.165,-65.308,-222.839,0
0.417,0.029,-0.468,3.601,-70.19,-220.337,0
0.415,0.011,-0.477,-0.854,-73.853,-215.698,0
0.361,-0.014,-0.469,-8.301,-75.439,-209.778,0
0.363,-0.051,-0.463,-17.395,-76.904,-201.294,0
0.357,-0.076,-0.48,-26.917,-76.904,-193.542,0
0.319,-0.103,-0.494,-40.649,-74.829,-189.575,0
0.248,-0.152,-0.496,-55.969,-74.768,-188.293,0
0.221,-0.168,-0.47,-70.007,-80.017,-190.735,0
0.241,-0.182,-0.419,-81.787,-88.135,-194.824,0
0.223,-0.201,-0.383,-89.111,-92.896,-196.411,0
0.205,-0.222,-0.363,-92.102,-91.614,-194.275,1
0.186,-0.23,-0.365,-92.712,-89.355,-189.453,1
0.151,-0.241,-0.354,-96.313,-89.417,-185.791,1
0.1,-0.27,-0.325,-101.868,-93.323,-182.007,1
0.106,-0.281,-0.303,-105.408,-99.365,-174.805,1
0.078,-0.265,-0.245,-108.521,-101.685,-165.771,1
0.092,-0.262,-0.211,-111.267,-106.018,-155.823,1
0.113,-0.271,-0.181,-113.708,-109.985,-151.428,1
0.124,-0.253,-0.153,-116.272,-108.887,-149.719,1
0.088,-0.24,-0.106,-122.009,-103.882,-148.926,1
0.032,-0.247,-0.058,-130.371,-101.807,-146.606,1
-0.016,-0.265,0.004,-139.038,-102.722,-141.235,1
-0.055,-0.307,0.076,-146.79,-106.934,-136.658,1
-0.107,-0.323,0.154,-151.428,-114.441,-134.155,1
-0.175,-0.347,0.231,-151.978,-124.023,-131.836,1
-0.135,-0.381,0.314,-147.766,-134.766,-126.221,1
-0.209,-0.334,0.384,-142.395,-144.165,-122.375,1
-0.217,-0.357,0.45,-138.123,-152.771,-111.328,1
-0.203,-0.374,0.5,-135.254,-163.025,-101.929,1
-0.205,-0.357,0.546,-132.141,-171.875,-91.553,1
-0.172,-0.356,0.621,-131.042,-171.631,-83.008,1
-0.187,-0.327,0.675,-130.31,-164.368,-73.425,1
-0.198,-0.306,0.719,-131.042,-151.672,-61.218,1
-0.191,-0.318,0.756,-134.46,-133.118,-48.218,1
-0.249,-0.306,0.834,-138,-111.267,-35.889,1
-0.276,-0.349,0.91,-138.977,-96.252,-23.132,1
-0.311,-0.336,0.948,-136.23,-90.759,-17.395,1
-0.325,-0.287,1.002,-132.69,-84.961,-10.254,1
-0.329,-0.286,1.059,-131.653,-80.627,0.366,1
-0.346,-0.282,1.117,-128.967,-79.712,15.564,1
-0.341,-0.285,1.153,-124.023,-80.017,30.762,1
-0.322,-0.273,1.172,-116.577,-79.834,45.959,1
-0.308,-0.259,1.187,-108.337,-79.163,61.646,1
-0.271,-0.24,1.199,-100.525,-76.782,77.515,1
-0.264,-0.216,1.214,-93.872,-74.402,91.919,1
-0.263,-0.182,1.262,-89.355,-71.228,107.544,1
-0.162,-0.163,1.256,-85.815,-68.604,115.601,1
-0.23,-0.06,1.338,-82.52,-58.533,131.226,1
-0.201,-0.089,1.33,-87.463,-59.204,143.372,1
-0.175,-0.077,1.349,-89.539,-57.495,160.339,1
-0.132,-0.177,1.394,-88.501,-47.607,163.94,1
-0.155,-0.101,1.365,-77.759,-44.739,160.583,1
-0.165,-0.071,1.396,-68.42,-35.645,163.635,1
-0.175,-0.072,1.428,-62.256,-33.691,166.26,1
-0.185,-0.033,1.441,-55.176,-36.56,171.57,1
-0.187,-0.04,1.467,-49.072,-37.72,180.969,1
-0.204,-0.014,1.476,-42.297,-40.405,189.88,1
-0.189,0.001,1.493,-35.278,-44.8,198.303,1
-0.194,0.054,1.493,-29.602,-50.232,205.872,1
-0.135,0.065,1.457,-25.024,-54.932,214.844,1
-0.126,0.06,1.437,-22.095,-53.894,222.656,1
-0.119,0.06,1.413,-19.897,-53.223,225.708,1
-0.054,0.038,1.381,-15.503,-53.65,226.196,1
-0.008,0.099,1.367,-9.033,-49.011,222.046,1
0,0.143,1.316,-4.944,-41.992,227.051,1
0.037,0.229,1.316,-5.859,-34.363,254.944,1
-0.052,0.045,1.336,-11.536,-27.832,273.682,1
0.023,0.038,1.274,-5.615,-36.438,246.155,1
-0.004,0.137,1.236,9.949,-31.86,231.812,1
-0.006,0.257,1.218,15.564,-25.879,225.525,1
0.056,0.297,1.217,16.418,-28.137,248.962,1
0.194,0.166,1.213,11.902,-30.151,257.263,1
0.281,0.33,1.155,17.212,-27.71,255.249,1
0.374,0.34,1.145,16.541,-15.625,263.733,1
0.406,0.285,1.132,11.23,-3.54,261.963,1
0.411,0.299,1.112,12.085,4.944,257.263,1
0.391,0.32,1.079,12.024,9.033,246.094,1
0.379,0.326,1.049,13.611,9.766,239.563,1
0.37,0.207,1.091,14.648,9.155,224.548,1
0.391,0.341,1.06,22.705,-12.512,206.665,1
0.625,0.401,1.045,27.588,-26.855,196.411,1
0.732,0.437,1.004,24.231,-30.518,182.8,1
0.803,0.452,0.976,22.278,-22.522,171.143,1
0.868,0.468,0.957,19.958,-15.503,159.058,1
0.89,0.447,0.989,17.639,-12.329,147.461,1
0.907,0.406,0.881,15.198,-11.292,135.742,1
0.82,0.435,0.967,12.39,4.7,118.042,1
0.746,0.349,0.921,8.606,-15.991,106.262,1
0.835,0.309,0.946,10.315,-19.592,90.942,1
0.774,0.311,0.972,9.644,-18.677,70.496,1
0.675,0.315,0.962,7.69,-21.057,49.866,1
0.643,0.193,1.005,6.531,-20.691,36.926,1
0.573,0.205,1.007,10.498,-26.367,21.423,1
0.546,0.252,0.984,16.418,-31.738,12.939,1
0.513,0.187,0.988,15.076,-29.114,7.019,1
0.429,0.224,0.976,16.602,-25.879,4.456,1
0.408,0.17,0.967,15.381,-21.545,3.845,1
0.315,0.387,1.894,-49.561,119.568,256.409,1
0.384,0.532,1.941,-16.052,101.013,259.949,1
0.407,0.533,1.971,12.817,81.726,272.583,1
0.458,0.474,1.956,41.016,60.608,273.193,1
0.462,0.53,1.91,78.308,43.396,267.273,1
0.436,0.595,1.886,114.197,27.527,276.184,1
0.538,0.537,1.828,142.334,9.399,286.743,1
0.622,0.565,1.754,174.561,10.559,301.331,1
0.636,0.595,1.648,200.867,23.071,311.462,1
0.637,0.615,1.546,217.773,37.598,319.336,1
0.744,0.726,1.421,225.525,49.255,320.374,1
0.632,0.561,1.355,227.6,66.65,332.825,1
0.8,0.585,1.295,221.558,72.021,290.344,1
0.83,0.672,1.203,232.361,93.262,289.001,1
0.88,0.678,1.065,237.854,108.276,287.17,1
0.876,0.818,0.908,237.732,111.633,287.476,1
0.8,0.738,0.805,223.389,107.544,297.607,1
0.799,0.547,0.739,207.947,90.271,278.564,1
0.775,0.664,0.65,206.238,67.444,248.779,1
0.857,0.74,0.552,202.942,50.476,229.553,1
0.928,0.776,0.458,192.749,40.283,206.116,1
1.016,0.912,0.337,185.486,37.598,187.683,1
1.103,1.018,0.239,176.575,47.119,180.725,1
1.194,0.98,0.176,161.133,59.998,177.246,1
1.122,0.98,-0.001,146.301,69.458,169.189,1
1.147,1.003,0.076,131.104,83.191,161.743,1
1.095,0.885,-0.021,108.459,74.89,157.471,1
1.072,0.886,-0.052,87.524,89.783,142.212,1
1.04,0.769,-0.023,66.04,100.952,133.118,1
0.895,0.619,0.022,47.302,92.163,115.662,1
0.848,0.56,0.071,40.71,69.58,94.421,1
0.84,0.524,0.099,37.537,45.166,68.054,1
0.831,0.5,0.173,36.072,28.503,41.138,1
0.744,0.509,0.212,32.104,8.728,19.409,1
0.73,0.479,0.281,26.001,-8.911,9.277,1
0.733,0.427,0.369,18.86,-21.057,1.343,1
0.705,0.395,0.442,15.442,-30.09,-5.798,1
0.672,0.376,0.502,15.381,-31.982,-11.292,1
0.675,0.387,0.536,15.32,-31.494,-13.062,1
0.676,0.38,0.575,11.719,-28.687,-13.428,1
0.651,0.318,0.623,5.432,-24.841,-12.695,1
0.63,0.272,0.663,2.563,-21.362,-13.367,1
0.593,0.273,0.689,2.319,-19.897,-13.184,1
0.577,0.255,0.712,-0.061,-15.381,-12.756,1
0.563,0.212,0.74,-2.869,-12.085,-13.489,1
0.529,0.207,0.755,-3.479,-11.963,-14.465,1
0.529,0.184,0.774,-3.479,-10.62,-13.489,1
0.526,0.169,0.784,-2.441,-11.047,-12.817,1
0.527,0.173,0.785,-0.488,-13.184,-11.597,1
0.529,0.172,0.781,1.648,-15.32,-11.169,1
0.538,0.176,0.782,2.869,-18.188,-11.108,1
0.552,0.179,0.779,2.869,-20.63,-10.986,1
0.57,0.176,0.777,1.953,-20.874,-10.376,1
0.567,0.17,0.77,1.343,-18.372,-9.46,1
0.561,0.169,0.769,1.343,-15.808,-8.545,1
0.558,0.157,0.77,2.014,-13.184,-7.019,1
0.551,0.149,0.773,3.54,-11.23,-6.592,1
0.549,0.151,0.771,5.127,-10.864,-6.897,1
0.555,0.148,0.772,6.165,-10.925,-7.446,1
0.555,0.155,0.769,6.714,-10.742,-7.629,1
0.566,0.129,0.784,6.592,-9.46,-7.629,1
0.545,0.173,0.749,6.836,-9.338,-7.202,1
0.537,0.153,0.748,4.944,-6.042,-4.944,1
0.532,0.12,0.734,3.052,-8.85,-5.371,1
0.552,0.145,0.726,5.31,-9.216,-5.737,1
0.54,0.138,0.714,6.226,-7.69,-6.714,1
0.529,0.159,0.703,7.141,-6.226,-7.202,1
0.548,0.151,0.699,6.348,-4.944,-5.493,1
0.549,0.146,0.698,4.944,-3.296,-5.127,1
0.528,0.154,0.704,4.639,-2.808,-5.005,1
0.528,0.144,0.704,4.15,-5.798,-5.127,1
0.546,0.147,0.707,3.784,-9.521,-5.249,1
0.555,0.151,0.71,3.052,-10.681,-5.676,1
0.551,0.149,0.715,2.014,-11.108,-5.981,1
0.56,0.149,0.723,0.549,-10.925,-5.615,1
0.568,0.15,0.731,-1.038,-9.155,-5.188,1
0.563,0.149,0.735,-2.686,-7.629,-5.066,1
0.565,0.145,0.747,-3.418,-6.714,-4.639,1
0.556,0.146,0.754,-3.662,-5.615,-3.845,1
0.551,0.131,0.763,-3.601,-5.005,-2.93,1
0.552,0.126,0.768,-2.136,-5.188,-2.625,1
0.554,0.131,0.771,0.122,-6.287,-2.93,1
0.563,0.138,0.771,2.014,-8.789,-3.662,1
0.57,0.148,0.77,3.235,-10.803,-3.784,1
0.584,0.15,0.767,2.747,-12.573,-3.967,1
0.595,0.155,0.768,1.892,-12.634,-3.723,1
0.601,0.157,0.77,0.977,-10.62,-3.357,1
0.609,0.159,0.766,0.366,-8.118,-2.747,1
0.616,0.165,0.765,-0.061,-4.211,-1.831,1
0.612,0.167,0.759,-1.221,0,-0.916,1
0.596,0.16,0.767,-2.747,4.089,-0.732,1
0.582,0.15,0.769,-3.296,5.554,-0.732,1
0.585,0.151,0.768,-2.563,3.845,-1.221,1
0.588,0.15,0.766,-1.587,2.075,-2.38,1
0.583,0.144,0.769,-0.854,0.793,-3.906,1
0.579,0.145,0.771,0.366,-0.427,-4.883,1
0.574,0.147,0.774,1.709,-2.014,-5.371,1
0.574,0.148,0.776,3.174,-2.502,-5.615,1
0.57,0.139,0.774,4.333,-2.808,-5.859,1
0.567,0.145,0.77,5.92,-2.991,-5.798,1
0.568,0.144,0.765,6.958,-2.563,-5.371,1
0.568,0.144,0.763,6.775,-1.587,-5.127,1
0.564,0.137,0.763,6.348,-0.244,-5.066,1
0.564,0.135,0.76,5.676,0.122,-5.188,1
0.559,0.137,0.752,4.639,0.427,-5.371,1
0.545,0.125,0.756,2.991,0.549,-5.859,1
0.54,0.121,0.758,1.953,-1.221,-6.531,1
0.545,0.121,0.756,1.831,-2.563,-7.08,1
0.533,0.127,0.757,2.38,-2.441,-6.958,1
0.534,0.126,0.755,2.869,-1.831,-5.981,1
0.541,0.13,0.754,3.174,-1.465,-5.066,1
0.542,0.131,0.75,3.235,-0.244,-3.784,1
0.542,0.131,0.749,2.441,1.343,-2.38,1
0.543,0.131,0.744,1.465,3.174,-1.038,1
0.543,0.128,0.745,0.122,4.822,0,1
0.546,0.129,0.749,-1.526,5.737,0.732,1
0.54,0.125,0.753,-2.93,6.042,0.671,1
0.541,0.119,0.763,-3.601,5.371,0.122,1
0.544,0.122,0.771,-2.869,4.456,-0.854,1
1.693,0.722,-0.21,49.622,-74.707,-117.004,0
1.708,0.701,-0.217,46.875,-69.153,-128.784,0
1.704,0.673,-0.212,43.03,-58.35,-139.465,0
1.653,0.645,-0.19,37.659,-48.157,-150.269,0
1.594,0.616,-0.163,31.128,-41.809,-161.194,0
1.521,0.567,-0.153,23.926,-36.682,-171.631,0
1.469,0.528,-0.121,17.822,-31.677,-181.213,0
1.37,0.484,-0.1,13.672,-27.649,-189.758,0
1.315,0.452,-0.101,11.414,-25.024,-196.411,0
1.26,0.429,-0.098,9.583,-21.912,-202.026,0
1.208,0.405,-0.098,4.7,-16.357,-207.153,0
1.132,0.359,-0.09,-2.136,-8.423,-210.693,0
1.014,0.301,-0.075,-10.925,2.075,-214.722,0
0.937,0.272,-0.069,-18.066,11.658,-217.834,0
0.849,0.224,-0.066,-23.926,19.165,-219.299,0
0.777,0.162,-0.063,-28.259,25.696,-220.154,0
0.704,0.146,-0.078,-29.785,28.992,-221.619,0
0.647,0.13,-0.086,-32.349,29.236,-220.581,0
0.598,0.092,-0.096,-39.673,28.137,-222.961,0
0.552,0.059,-0.1,-49.927,28.137,-226.562,0
0.491,0.014,-0.092,-63.171,28.015,-233.398,0
0.419,-0.029,-0.054,-75.195,26.611,-235.962,0
0.4,-0.091,-0.015,-81.665,26.428,-233.154,0
0.355,-0.143,-0.006,-80.811,33.569,-228.455,0
0.271,-0.176,-0.017,-73.792,44.495,-219.788,0
0.207,-0.194,-0.039,-66.589,49.927,-211.182,0
0.192,-0.22,-0.091,-61.401,45.898,-200.073,0
0.183,-0.239,-0.133,-59.631,35.645,-189.453,0
0.17,-0.262,-0.15,-61.401,28.381,-180.969,0
0.146,-0.266,-0.184,-67.383,23.315,-176.331,0
0.098,-0.266,-0.206,-76.965,17.09,-170.593,0
0.047,-0.303,-0.203,-90.454,7.141,-166.687,0
0,-0.334,-0.186,-103.638,-8.423,-166.26,0
-0.013,-0.351,-0.152,-112.793,-27.222,-166.26,1
-0.028,-0.382,-0.12,-117.798,-44.983,-165.283,1
-0.041,-0.393,-0.103,-118.774,-60.12,-162.048,1
-0.045,-0.39,-0.09,-117.126,-72.388,-155.701,1
-0.059,-0.399,-0.073,-116.211,-80.75,-147.4,1
-0.084,-0.417,-0.071,-115.173,-85.022,-137.573,1
-0.094,-0.405,-0.067,-114.319,-86.731,-127.93,1
-0.134,-0.382,-0.072,-117.188,-89.905,-120.728,1
-0.164,-0.372,-0.046,-124.756,-96.924,-115.112,1
-0.229,-0.358,0,-135.071,-106.75,-110.718,1
-0.273,-0.38,0.059,-146.545,-118.408,-106.628,1
-0.331,-0.386,0.144,-156.494,-129.578,-102.966,1
-0.348,-0.419,0.198,-162.659,-140.869,-96.069,1
-0.326,-0.429,0.234,-162.842,-149.719,-89.05,1
-0.33,-0.38,0.254,-158.63,-149.719,-77.393,1
-0.34,-0.359,0.307,-155.823,-142.517,-59.875,1
-0.334,-0.348,0.368,-153.625,-132.202,-39.856,1
-0.347,-0.28,0.417,-151.428,-117.004,-18.982,1
-0.366,-0.227,0.494,-151.794,-100.098,1.038,1
-0.373,-0.193,0.586,-154.907,-87.219,16.174,1
-0.371,-0.137,0.679,-158.386,-77.209,25.696,1
-0.399,-0.073,0.8,-163.94,-67.2,33.569,1
-0.389,-0.041,0.911,-169.922,-60.73,45.227,1
-0.344,-0.029,1.026,-172.058,-55.725,62.134,1
-0.311,-0.025,1.124,-168.274,-51.025,78.674,1
-0.242,0.01,1.211,-158.203,-45.593,94.055,1
-0.223,0.032,1.286,-145.325,-39.063,109.436,1
-0.172,0.052,1.343,-131.042,-31.799,124.146,1
-0.099,0.108,1.372,-115.784,-23.56,139.099,1
-0.026,0.128,1.38,-102.783,-13.916,155.64,1
-0.025,0.135,1.441,-94.727,-4.089,167.908,1
-0.004,0.147,1.468,-88.989,-1.099,164.795,1
-0.003,0.247,1.506,-81.97,2.747,170.898,1
0.036,0.135,1.537,-80.2,-0.244,183.655,1
0.075,0.15,1.52,-72.449,-5.127,180.847,1
0.08,0.202,1.508,-62.195,-10.742,186.096,1
0.048,0.072,1.539,-56.091,-19.348,197.815,1
0.217,0.104,1.462,-40.955,-34.302,188.599,1
0.173,0.259,1.483,-20.752,-32.349,202.271,1
0.276,0.15,1.432,-16.907,-47.791,219.299,1
0.318,0.111,1.432,-7.141,-47.729,226.929,1
0.355,0.206,1.371,5.859,-48.401,224.243,1
0.341,0.097,1.389,10.986,-44.861,227.844,1
0.474,0.209,1.346,15.015,-49.194,217.407,1
0.48,0.206,1.379,14.526,-39.307,223.694,1
0.566,0.111,1.363,8.728,-35.706,215.027,1
0.553,0.224,1.373,11.169,-23.499,205.811,1
0.538,0.196,1.381,7.935,-15.869,202.698,1
0.498,0.184,1.375,6.836,-13.794,204.773,1
0.496,0.14,1.387,11.475,-17.944,208.008,1
0.548,0.166,1.387,20.142,-25.208,202.82,1
0.568,0.218,1.345,31.006,-27.1,204.773,1
0.584,0.193,1.328,38.208,-29.419,207.581,1
0.606,0.15,1.301,46.265,-33.752,205.933,1
0.614,0.212,1.254,56.946,-34.607,199.341,1
0.598,0.235,1.206,63.843,-31.982,200.256,1
0.582,0.229,1.171,64.697,-30.151,200.134,1
0.56,0.219,1.138,65.674,-30.823,195.679,1
0.564,0.232,1.117,68.054,-33.02,190.063,1
0.664,0.283,1.088,68.787,-35.645,184.326,1
0.717,0.324,1.051,66.101,-29.907,186.096,1
0.713,0.325,1.012,58.96,-19.165,189.575,1
0.694,0.251,0.987,54.138,-10.803,191.528,1
0.693,0.251,0.945,54.932,-8.789,183.105,1
0.664,0.261,0.921,56.946,-6.775,174.5,1
0.612,0.231,0.897,56.58,-5.554,166.504,1
0.574,0.244,0.861,57.861,-9.644,158.813,1
0.555,0.231,0.838,57.251,-18.25,150.879,1
0.543,0.221,0.814,54.443,-29.846,139.832,1
0.546,0.223,0.786,50.537,-41.138,127.38,1
0.596,0.237,0.777,46.509,-50.476,115.173,1
0.644,0.26,0.771,42.297,-54.016,104.919,1
0.63,0.312,0.758,37.415,-48.096,98.145,1
0.698,0.244,0.762,32.288,-39.917,95.215,1
0.714,0.299,0.715,29.785,-28.992,92.224,1
0.697,0.278,0.707,23.071,-13.123,93.628,1
0.682,0.317,0.729,13.428,-4.517,89.05,1
0.711,0.208,0.684,5.554,-0.427,90.149,1
0.666,0.281,0.7,-3.235,11.536,78.735,1
0.651,0.121,0.721,-11.475,19.287,72.205,1
0.564,0.175,0.725,-15.381,18.738,55.847,1
0.607,0.093,0.76,-15.442,13.916,39.124,1
0.543,0.213,0.76,-13.367,7.019,28.931,1
0.536,0.107,0.813,-16.785,6.958,25.208,1
0.49,0.11,0.841,-14.221,-1.16,16.479,1
0.475,0.141,0.844,-7.751,-8.301,12.329,1
1.498,0.822,-0.477,63.049,3.235,-56.519,0
1.504,0.867,-0.535,62.317,2.38,-68.665,0
1.503,0.892,-0.564,57.556,-4.944,-82.52,0
1.535,0.889,-0.574,49.011,-16.968,-98.694,0
1.609,0.895,-0.544,40.894,-27.649,-114.685,0
1.651,0.895,-0.518,34.485,-32.41,-130.066,0
1.661,0.859,-0.501,29.663,-32.715,-143.738,0
1.63,0.827,-0.498,27.649,-29.602,-156.921,0
1.596,0.804,-0.497,26.001,-24.109,-169.006,0
1.557,0.765,-0.49,20.386,-17.883,-181.03,0
1.518,0.73,-0.474,12.756,-10.925,-192.2,0
1.501,0.725,-0.43,4.456,-0.61,-201.904,0
1.472,0.698,-0.401,-5.981,14.404,-210.449,0
1.382,0.66,-0.38,-17.334,32.593,-217.773,0
1.227,0.587,-0.345,-28.809,51.331,-223.999,0
1.129,0.51,-0.327,-37.72,63.904,-228.821,0
1.029,0.457,-0.316,-43.701,67.871,-234.314,0
0.942,0.426,-0.329,-50.598,69.824,-241.882,0
0.786,0.371,-0.312,-61.584,71.106,-250.549,0
0.654,0.287,-0.256,-74.158,68.848,-258.667,0
0.572,0.202,-0.224,-81.299,62.317,-265.991,0
0.435,0.13,-0.222,-81.665,54.26,-272.4,0
0.411,0.083,-0.243,-76.111,44.312,-271.606,0
0.371,0.044,-0.248,-66.772,39.612,-263,0
0.336,0.019,-0.261,-58.289,38.269,-248.596,0
0.313,0.016,-0.251,-54.138,40.527,-231.018,0
0.276,-0.06,-0.252,-58.289,44.434,-215.942,0
0.205,-0.112,-0.265,-66.406,44.495,-208.008,0
0.134,-0.142,-0.275,-77.515,42.48,-205.078,0
0.087,-0.212,-0.309,-91.919,37.964,-205.383,0
0.077,-0.201,-0.352,-104.065,29.663,-206.97,0
0.03,-0.222,-0.348,-115.967,23.315,-208.618,0
-0.041,-0.253,-0.346,-127.075,13.672,-207.031,0
-0.073,-0.277,-0.321,-135.01,-2.075,-201.294,0
-0.064,-0.33,-0.279,-139.404,-20.02,-196.106,0
-0.019,-0.392,-0.241,-137.024,-32.776,-193.115,0
-0.095,-0.398,-0.203,-125.122,-31.433,-186.401,0
-0.116,-0.426,-0.234,-110.779,-30.884,-170.471,1
-0.207,-0.467,-0.228,-100.464,-35.645,-156.738,1
-0.2,-0.434,-0.228,-90.393,-47.302,-137.512,1
-0.154,-0.449,-0.239,-84.778,-62.988,-117.676,1
-0.131,-0.458,-0.251,-84.167,-75.134,-106.445,1
-0.206,-0.426,-0.257,-87.585,-84.595,-102.112,1
-0.275,-0.443,-0.232,-99.182,-100.586,-101.868,1
-0.296,-0.476,-0.198,-115.417,-124.207,-103.699,1
-0.381,-0.458,-0.149,-132.324,-152.588,-106.506,1
-0.312,-0.466,-0.083,-145.691,-185.242,-100.403,1
-0.284,-0.512,0.008,-156.433,-208.679,-102.722,1
-0.269,-0.55,0.064,-154.419,-218.628,-100.098,1
-0.23,-0.517,0.061,-140.076,-213.684,-83.923,1
-0.286,-0.495,0.094,-127.014,-199.707,-57.556,1
-0.308,-0.491,0.113,-122.742,-194.214,-41.809,1
-0.295,-0.45,0.145,-120.178,-187.622,-18.372,1
-0.294,-0.447,0.177,-123.901,-180.237,-0.793,1
-0.31,-0.413,0.218,-130.859,-172.913,12.268,1
-0.35,-0.386,0.259,-140.32,-169.373,24.475,1
-0.362,-0.364,0.31,-152.222,-174.561,33.325,1
-0.325,-0.314,0.376,-164.551,-182.007,40.039,1
-0.278,-0.306,0.515,-174.805,-180.359,51.331,1
-0.224,-0.422,0.615,-176.819,-174.194,56.763,1
-0.247,-0.33,0.656,-164.49,-159.18,53.589,1
-0.252,-0.252,0.713,-148.926,-138.611,70.618,1
-0.248,-0.184,0.766,-140.076,-128.235,84.534,1
-0.246,-0.108,0.845,-134.46,-122.62,101.746,1
-0.206,-0.074,0.906,-132.446,-121.216,117.493,1
-0.18,-0.034,0.935,-134.338,-119.69,126.221,1
-0.172,0.012,0.983,-140.625,-115.173,128.601,1
-0.135,0.019,1.04,-149.597,-107.971,129.272,1
-0.104,0.021,1.092,-156.189,-96.13,131.226,1
-0.144,0.033,1.139,-157.532,-81.726,135.681,1
-0.173,0.051,1.213,-155.09,-72.327,141.663,1
-0.187,0.076,1.288,-148.804,-69.824,150.33,1
-0.179,0.069,1.341,-139.771,-73.364,161.316,1
-0.179,0.055,1.391,-127.075,-80.2,173.157,1
-0.14,0.092,1.414,-109.192,-90.698,186.34,1
-0.084,0.135,1.427,-92.468,-102.234,198.547,1
-0.025,0.155,1.424,-80.566,-110.168,207.764,1
0.011,0.188,1.43,-73.303,-112.488,212.891,1
0.042,0.204,1.459,-72.266,-110.779,213.684,1
0.099,0.203,1.503,-75.012,-108.093,211.853,1
0.104,-0.018,1.515,-77.881,-103.699,209.534,1
0.177,0.267,1.407,-74.28,-98.328,192.81,1
-0.072,0.275,1.552,-74.89,-70.435,209.473,1
0.085,0.307,1.56,-85.144,-92.041,209.412,1
0.152,0.107,1.692,-84.717,-83.069,234.375,1
0.233,0.099,1.618,-75.806,-88.745,219.055,1
0.139,0.241,1.63,-54.871,-72.693,220.581,1
0.127,0.124,1.62,-48.096,-79.285,216.125,1
0.131,0.145,1.638,-31.921,-83.435,207.214,1
0.231,0.228,1.608,-16.907,-90.759,197.388,1
0.254,0.169,1.594,-12.207,-88.867,193.42,1
0.226,0.312,1.592,-13.306,-87.708,183.594,1
0.265,0.282,1.59,-14.465,-87.219,193.787,1
0.305,0.24,1.558,-16.907,-85.083,197.632,1
0.236,0.22,1.532,-12.939,-76.843,199.829,1
0.174,0.223,1.518,-7.874,-74.951,196.716,1
0.237,0.273,1.482,-3.113,-81.299,194.763,1
0.351,0.237,1.46,2.075,-83.984,194.763,1
0.427,0.282,1.42,9.277,-82.703,191.895,1
0.473,0.3,1.369,13.977,-75.806,193.176,1
0.463,0.27,1.313,16.113,-65.491,191.711,1
0.456,0.289,1.253,19.287,-61.218,188.293,1
0.452,0.25,1.212,21.545,-55.481,184.143,1
0.455,0.254,1.167,25.085,-49.744,175.781,1
0.426,0.245,1.141,27.771,-44.678,165.283,1
0.444,0.24,1.125,27.405,-44.922,150.94,1
0.486,0.24,1.115,24.841,-47.424,135.071,1
0.528,0.303,1.079,19.714,-48.584,121.704,1
0.521,0.236,1.094,12.329,-43.701,112.427,1
0.552,0.313,1.019,6.714,-44.128,106.812,1
0.57,0.189,1.016,0.549,-30.701,104.004,1
0.532,0.234,0.993,0.305,-19.958,90.759,1
0.506,0.22,0.971,1.221,-6.165,82.153,1
0.467,0.22,0.954,-1.587,6.165,74.036,1
0.445,0.193,0.913,-2.93,14.16,66.589,1
0.366,0.089,0.977,-1.343,20.447,59.204,1
0.329,0.231,0.937,2.502,14.648,49.805,1
0.319,0.122,0.941,1.648,12.512,46.143,1
0.306,0.148,0.931,0.732,5.615,37.537,1
