aX,aY,aZ,gX,gY,gZ,ts
1.104,0.856,-0.96,66.711,-10.254,146.362,0
1.185,1.077,-0.981,77.087,-21.667,147.522,0
1.338,1.291,-1.015,74.646,-42.908,139.038,0
1.493,1.484,-1.058,51.758,-72.021,115.967,0
1.621,1.556,-1.074,13.672,-102.051,81.055,0
1.768,1.576,-1.001,-27.344,-127.136,37.354,0
1.884,1.627,-0.855,-68.054,-143.677,-14.282,0
1.921,1.685,-0.689,-109.192,-156.25,-66.101,0
1.866,1.633,-0.534,-148.499,-167.236,-101.868,0
1.836,1.541,-0.402,-177.368,-175.049,-123.962,0
1.851,1.47,-0.285,-186.523,-183.289,-145.203,0
1.87,1.403,-0.154,-182.8,-186.096,-169.312,0
1.95,1.424,-0.015,-169.128,-177.429,-193.542,0
1.987,1.438,0.112,-153.809,-159.18,-214.172,0
1.938,1.403,0.183,-143.127,-135.132,-236.084,0
1.835,1.438,0.176,-133.179,-108.032,-265.503,0
1.661,1.403,0.198,-130.005,-83.496,-296.143,0
1.543,1.349,0.21,-132.751,-63.293,-334.045,0
1.393,1.28,0.187,-137.39,-50.232,-382.019,0
1.227,1.244,0.216,-139.221,-39.673,-417.908,0
1.101,1.251,0.249,-136.719,-24.78,-435.547,0
0.882,1.192,0.263,-136.536,-9.766,-449.89,0
0.773,1.181,0.245,-140.259,2.808,-469.177,0
0.588,1.162,0.27,-136.169,14.954,-459.961,0
0.538,0.928,0.285,-135.498,23.376,-444.519,0
0.358,0.704,0.283,-146.423,36.194,-492.249,0
0.37,0.811,0.283,-132.629,43.213,-517.334,0
0.19,0.799,0.35,-115.906,59.692,-491.272,0
0.098,0.668,0.365,-119.141,74.463,-480.713,0
0.302,0.767,0.205,-126.038,92.773,-475.22,0
0.015,0.391,0.188,-138.245,130.737,-454.468,0
-0.037,0.467,0.079,-153.137,152.954,-515.503,0
-0.087,0.566,0.137,-143.921,165.405,-493.286,0
-0.173,0.487,0.247,-162.781,185.913,-478.638,0
-0.223,0.336,0.385,-184.937,203.918,-462.891,0
-0.29,0.196,0.489,-194.214,220.154,-445.801,0
-0.42,0.088,0.532,-192.627,227.112,-432.556,0
-0.546,0.003,0.513,-180.908,215.21,-417.664,0
-0.606,-0.103,0.378,-169.25,188.721,-405.945,0
-0.604,-0.094,0.254,-151.978,162.231,-378.357,0
-0.584,-0.039,0.18,-143.311,140.381,-348.572,0
-0.73,-0.074,0.247,-146.606,128.54,-312.5,0
-0.838,-0.235,0.342,-156.189,104.187,-290.283,0
-0.829,-0.201,0.385,-147.156,79.59,-251.465,0
-0.776,-0.304,0.377,-137.878,73.181,-192.993,0
-1.033,-0.428,0.398,-135.925,64.514,-176.208,0
-1.026,-0.396,0.463,-119.568,40.894,-166.321,0
-1.127,-0.42,0.531,-105.347,26.917,-144.409,0
-1.188,-0.451,0.567,-94.36,8.911,-112.976,0
-1.157,-0.537,0.554,-82.642,-8.606,-74.89,0
-1.146,-0.571,0.516,-70.19,-15.564,-46.387,0
-1.173,-0.557,0.493,-58.594,-8.85,-22.034,0
-1.205,-0.56,0.461,-50.842,-0.549,1.831,0
-1.257,-0.532,0.476,-45.227,7.935,28.32,0
-1.146,-0.617,0.478,-45.166,20.447,66.589,0
-1.078,-0.747,0.453,-47.424,41.626,104.614,0
-1.091,-0.787,0.436,-41.321,67.749,145.203,0
-1.111,-0.767,0.418,-29.846,90.698,192.2,0
-1.105,-0.753,0.367,-19.958,105.408,240.112,0
-1.087,-0.742,0.289,-11.597,112.183,290.955,0
-1.083,-0.653,0.193,-3.967,113.525,347.168,0
-1.041,-0.556,0.117,-4.272,106.995,406.189,0
-0.961,-0.53,0.082,-13.733,90.271,461.731,0
-0.888,-0.533,0.05,-21.606,68.237,513.123,0
-0.691,-0.579,0.112,-23.682,47.791,556.458,0
-0.46,-0.667,0.178,-17.761,31.982,583.984,0
-0.197,-0.793,0.271,-3.906,24.048,596.802,0
0.135,-0.768,0.271,25.696,31.25,606.201,0
0.349,-0.614,0.242,72.998,62.744,612.122,0
0.292,-0.42,0.276,116.943,112.427,614.624,0
0.224,-0.187,0.203,163.635,138.794,614.807,0
0.395,0.064,0.031,214.294,132.385,603.21,0
0.664,0.532,-0.086,259.583,121.155,577.515,0
0.765,1.019,-0.184,277.466,117.432,537.17,0
0.842,1.397,-0.336,254.089,105.225,478.333,0
0.978,1.673,-0.437,204.468,63.477,403.809,0
1.205,1.805,-0.332,131.47,-4.333,316.772,0
1.535,1.765,-0.12,51.331,-59.021,233.215,0
1.59,1.582,0.048,-18.25,-85.938,149.78,0
1.636,1.466,0.072,-60.242,-100.342,77.515,0
1.809,1.35,0.096,-81.36,-92.896,31.616,0
1.803,1.116,0.208,-99.365,-52.734,1.343,0
1.716,0.885,0.25,-103.76,-2.197,-18.005,0
1.591,0.714,0.211,-93.201,44.067,-28.198,0
1.419,0.651,0.203,-76.721,77.881,-26.367,0
1.237,0.464,0.214,-62.195,87.769,-9.949,0
1.142,0.239,0.186,-45.349,72.632,1.953,0
1.135,0.183,0.13,-18.921,39.612,1.404,0
1.185,0.169,0.09,6.287,4.272,-1.404,0
1.189,0.133,0.108,19.47,-20.569,-3.845,0
1.214,0.075,0.114,25.635,-39.246,-6.531,0
1.207,0.06,0.085,29.846,-47.607,-10.376,0
1.27,0.019,0.065,29.907,-42.725,-14.038,0
1.198,0.064,0.067,29.297,-23.499,-5.676,0
1.282,-0.01,0.056,14.709,-2.197,-4.211,0
1.029,0.034,0.123,5.371,11.353,-4.15,0
1.198,-0.176,0.048,-3.479,9.399,-6.409,0
1.122,-0.091,0.046,-8.118,24.475,-32.349,0
1.066,-0.042,0.044,-7.69,31.189,-38.269,0
1.025,-0.114,0.025,-6.226,23.621,-22.461,0
1.01,-0.123,-0.016,-3.357,13,-14.404,0
1.016,-0.083,-0.011,1.038,7.629,-16.968,0
0.924,-0.016,0.004,7.324,0.854,-7.629,0
1.072,-0.122,-0.006,6.836,-9.338,2.625,0
1.006,0.029,0.004,12.024,-10.925,5.554,0
1.057,-0.065,0.012,16.541,-9.155,25.024,0
1.082,-0.107,0.019,6.165,-4.089,0.977,0
1.022,0.043,0.025,8.667,4.578,-15.259,0
1.012,-0.028,0.026,4.395,9.399,-14.832,0
0.973,-0.031,0.025,-1.038,10.01,-18.86,0
0.982,-0.018,0.021,-1.709,7.812,-21.301,0
0.942,-0.053,0.038,-3.906,6.104,-26.733,0
0.934,0.023,0.045,-4.089,3.601,-29.541,0
0.937,-0.059,0.048,-6.042,0.61,-21.057,0
0.94,-0.076,0.04,-8.972,-0.671,-23.071,0
0.943,-0.043,0.041,-5.981,0.488,-22.4,0
0.923,-0.112,0.05,-7.935,2.258,-21.973,0
0.921,-0.093,0.053,-6.592,1.404,-22.278,0
0.932,-0.108,0.048,-4.578,0.854,-20.142,0
1.516,0.778,-0.644,-84.045,-159.302,80.2,0
1.596,0.785,-0.644,-89.05,-178.467,84.778,0
1.685,0.81,-0.62,-91.675,-191.284,77.209,0
1.786,0.863,-0.606,-95.703,-199.097,65.369,0
1.794,0.849,-0.531,-105.774,-200.928,58.655,0
1.749,0.888,-0.461,-110.657,-195.251,47.729,0
1.773,0.912,-0.352,-114.075,-191.772,31.006,0
1.834,0.8,-0.166,-117.493,-188.965,17.029,0
1.96,0.792,-0.01,-109.68,-181.702,-6.348,0
2.125,0.865,0.131,-95.642,-167.664,-36.072,0
2.211,0.897,0.238,-81.604,-136.536,-72.754,0
2.203,0.984,0.373,-64.27,-95.581,-114.624,0
2.196,1.104,0.467,-46.265,-52.673,-163.025,0
2.151,1.205,0.53,-34.18,-6.653,-213.318,0
1.995,1.29,0.533,-28.381,40.222,-260.132,0
1.721,1.309,0.477,-25.391,78.43,-299.255,0
1.482,1.28,0.391,-28.381,99.121,-335.51,0
1.318,1.226,0.313,-33.813,104.492,-364.197,0
1.162,1.14,0.252,-38.818,101.196,-383.606,0
1.027,1.038,0.238,-47.058,93.689,-401.917,0
0.954,0.922,0.242,-54.81,83.984,-422.241,0
0.948,0.834,0.245,-57.495,78.308,-443.054,0
0.886,0.819,0.238,-55.847,83.008,-454.529,0
0.712,0.74,0.237,-56.03,94.36,-457.52,0
0.568,0.661,0.255,-54.016,104.492,-452.759,0
0.485,0.581,0.231,-54.688,113.953,-452.393,0
0.385,0.515,0.19,-57.678,127.686,-453.613,0
0.292,0.44,0.161,-63.965,143.25,-451.843,0
0.182,0.347,0.157,-73.73,157.166,-451.355,0
0.055,0.27,0.15,-82.825,164.978,-452.759,0
0.002,0.245,0.15,-87.83,163.696,-450.378,0
0.025,0.258,0.163,-92.468,160.706,-437.683,0
0.106,0.202,0.152,-101.746,169.861,-417.786,0
0.068,0.136,0.174,-120.361,190.491,-422.302,0
-0.037,0.165,0.223,-131.348,207.092,-429.138,0
-0.123,0.147,0.262,-138.611,221.619,-419.861,0
-0.235,0.08,0.275,-151.794,236.511,-409.485,0
-0.39,0.011,0.268,-162.659,245.789,-394.043,0
-0.527,-0.092,0.264,-169.189,243.652,-372.742,0
-0.721,-0.229,0.257,-169.495,228.455,-349.304,0
-0.771,-0.275,0.255,-162.781,199.768,-326.904,0
-0.882,-0.262,0.279,-152.893,171.997,-302.063,0
-0.938,-0.315,0.336,-149.475,142.578,-266.418,0
-0.914,-0.375,0.366,-149.048,116.821,-231.079,0
-1.078,-0.493,0.439,-142.883,95.886,-197.021,0
-1.187,-0.544,0.517,-123.962,59.875,-164.062,0
-1.143,-0.653,0.544,-100.891,15.076,-133.301,0
-1.1,-0.66,0.458,-76.843,-14.16,-109.009,0
-1.15,-0.621,0.441,-58.044,-18.311,-64.758,0
-1.012,-0.555,0.393,-43.945,0.183,-12.634,0
-0.985,-0.612,0.381,-42.603,20.752,36.255,0
-1.213,-0.867,0.39,-42.908,24.048,81.055,0
-1.195,-0.837,0.396,-33.447,4.089,95.825,0
-1.286,-0.69,0.377,-22.644,-5.981,126.465,0
-1.286,-0.74,0.356,-26.428,-19.531,177.673,0
-1.207,-0.784,0.281,-27.588,-42.48,227.905,0
-1.029,-0.731,0.167,-18.86,-61.096,285.889,0
-1.02,-0.672,0.093,-17.212,-75.806,345.398,0
-0.889,-0.639,0.016,-25.757,-100.037,396.973,0
-0.69,-0.559,-0.12,-33.203,-115.479,448.669,0
-0.502,-0.476,-0.094,-46.082,-109.009,496.338,0
-0.381,-0.507,0.003,-66.895,-92.896,529.358,0
-0.075,-0.645,0.149,-78.857,-71.716,552.795,0
0.289,-0.883,0.231,-72.083,-40.894,568.115,0
0.541,-0.955,0.329,-44.189,6.226,568.909,0
0.65,-0.91,0.329,-3.235,61.646,559.937,0
0.685,-0.765,0.37,44.922,104.248,553.406,0
0.599,-0.548,0.234,99.609,134.521,540.039,0
0.656,-0.153,0.144,157.959,151.062,515.32,0
0.654,0.302,0.031,199.28,152.344,480.53,0
0.68,0.545,-0.128,210.571,128.967,435.425,0
0.722,0.751,-0.314,204.346,81.665,380.493,0
0.887,0.893,-0.339,181.091,21.851,321.289,0
1.117,0.97,-0.29,136.597,-38.208,262.268,0
1.342,1.067,-0.21,83.74,-80.383,205.566,0
1.489,1.099,-0.159,26.672,-89.844,150.085,0
1.584,1.066,-0.104,-28.381,-74.402,97.168,0
1.547,0.99,-0.047,-76.355,-45.776,49.744,0
1.5,0.844,-0.031,-112.61,-12.085,16.663,0
1.445,0.684,0.032,-132.141,23.132,-0.122,0
1.3,0.484,0.076,-138.733,50.049,-6.226,0
1.196,0.286,0.074,-129.578,59.082,-7.507,0
1.151,0.193,0.044,-105.774,53.223,-4.944,0
1.129,0.068,0.017,-80.994,41.809,-1.343,0
1.111,0.011,0.004,-55.298,30.457,3.235,0
1.066,-0.003,0.027,-31.189,19.287,7.935,0
1.059,-0.033,0.036,-14.465,7.874,12.329,0
1.07,-0.074,0.033,-2.563,-1.831,14.771,0
1.057,-0.081,0.031,8.85,-6.897,14.954,0
1.045,-0.089,0.028,17.334,-10.132,13.855,0
1.026,-0.089,0.018,21.79,-13.062,10.376,0
1.059,-0.054,0.013,21.79,-13.977,6.287,0
1.066,-0.062,0.002,14.404,-9.705,4.883,0
1.052,-0.082,0.001,2.747,-1.831,4.028,0
1.033,-0.137,0.016,-6.653,7.629,1.465,0
0.99,-0.173,0.027,-10.925,13.062,-5.859,0
0.996,-0.138,0.009,-10.071,13.672,-10.62,0
0.985,-0.17,-0.029,-11.536,14.771,-11.536,0
0.926,-0.195,-0.041,-15.686,16.357,-20.203,0
0.947,-0.172,-0.059,-15.198,15.625,-28.381,0
0.945,-0.119,-0.081,-7.812,17.029,-19.409,0
0.92,-0.207,-0.058,-4.272,15.869,-9.338,0
0.91,-0.163,-0.068,-0.61,10.742,-11.292,0
0.851,-0.085,-0.07,9.399,11.719,5.371,0
0.949,-0.189,-0.104,3.906,12.451,6.897,0
0.907,0.027,-0.066,5.249,15.747,-6.042,0
0.959,-0.19,-0.081,10.193,11.536,21.667,0
0.863,-0.185,-0.05,-4.883,15.869,-17.273,0
0.879,0.014,-0.046,10.864,9.094,-6.287,0
0.897,-0.236,-0.032,0,5.371,-4.211,0
0.917,-0.128,-0.027,3.357,3.296,-11.475,0
0.881,-0.102,-0.01,10.01,5.554,-2.625,0
0.889,-0.177,-0.005,6.653,4.578,2.136,0
0.862,-0.117,-0.007,10.437,0.916,2.258,0
0.88,-0.262,0.032,13.245,-2.075,-5.066,0
0.854,-0.147,0.02,20.447,-7.263,-14.587,0
0.836,-0.128,-0.005,27.527,-11.414,-13,0
0.859,-0.084,-0.029,32.959,-11.475,-5.31,0
0.809,-0.094,-0.01,31.921,-7.751,-0.366,0
1.245,0.528,-0.869,-5.127,-117.249,104.126,0
1.364,0.585,-0.851,-6.897,-118.53,107.544,0
1.477,0.653,-0.818,-9.766,-115.173,104.431,0
1.605,0.716,-0.791,-14.16,-102.539,94.482,0
1.729,0.778,-0.763,-18.738,-80.2,79.102,0
1.793,0.835,-0.722,-25.391,-54.26,60.059,0
1.847,0.92,-0.661,-33.691,-28.992,39.734,0
1.853,0.971,-0.66,-44.189,-6.897,15.015,0
1.779,0.968,-0.658,-59.937,10.742,-14.221,0
1.677,0.991,-0.638,-77.087,20.874,-47.424,0
1.607,0.984,-0.594,-97.473,18.25,-80.627,0
1.566,0.933,-0.526,-118.042,5.554,-106.628,0
1.538,0.87,-0.473,-131.714,-11.658,-125.977,0
1.52,0.806,-0.404,-136.536,-29.602,-141.846,0
1.527,0.801,-0.356,-133.118,-43.213,-156.494,0
1.519,0.802,-0.3,-126.831,-51.331,-169.922,0
1.506,0.814,-0.251,-122.009,-56.274,-183.777,0
1.501,0.843,-0.208,-118.774,-57.617,-197.571,0
1.505,0.839,-0.153,-120.3,-54.993,-212.097,0
1.486,0.81,-0.098,-124.878,-47.302,-228.455,0
1.416,0.787,-0.022,-130.737,-34.241,-246.826,0
1.332,0.771,0.024,-135.742,-19.47,-265.564,0
1.25,0.722,0.072,-142.578,-7.751,-288.696,0
1.199,0.64,0.135,-148.56,3.235,-310.974,0
1.153,0.581,0.173,-152.283,18.677,-335.876,0
1.075,0.53,0.197,-152.1,37.048,-354.431,0
0.963,0.507,0.2,-148.193,56.091,-365.845,0
0.805,0.457,0.21,-144.165,72.693,-371.826,0
0.689,0.42,0.184,-140.442,84.473,-372.681,0
0.562,0.321,0.169,-140.015,90.271,-372.253,0
0.476,0.246,0.142,-140.564,90.088,-375.488,0
0.394,0.236,0.174,-132.568,87.463,-361.572,0
0.739,0.439,0.094,-119.385,97.839,-310.852,0
0.831,0.116,0.187,-137.085,153.992,-258.911,0
0.019,-0.294,0.256,-180.908,199.463,-346.802,0
0.292,0.077,0.152,-160.828,182.373,-388.733,0
0.249,0.147,0.177,-135.132,182.983,-342.285,0
-0.019,-0.092,0.165,-161.987,196.96,-348.328,0
0.056,-0.083,0.088,-172.302,193.42,-338.44,0
-0.096,-0.26,0.113,-177.307,190.063,-321.655,0
-0.16,-0.332,0.13,-179.016,175.903,-323.914,0
-0.201,-0.32,0.125,-165.771,162.292,-307.495,0
-0.261,-0.38,0.123,-161.194,153.992,-294.861,0
-0.337,-0.392,0.107,-154.541,141.846,-276.306,0
-0.333,-0.471,0.112,-148.254,120.239,-259.888,0
-0.378,-0.497,0.091,-138.55,98.877,-248.352,0
-0.387,-0.501,0.096,-123.474,80.2,-229.248,0
-0.487,-0.544,0.145,-112.61,60.364,-213.989,0
-0.412,-0.475,0.138,-97.473,36.621,-192.627,0
-0.308,-0.533,0.137,-86.121,28.198,-171.021,0
-0.402,-0.543,0.089,-80.566,41.87,-161.743,0
-0.292,-0.61,0.076,-82.092,60.181,-161.682,0
-0.483,-0.454,0.079,-77.82,85.388,-157.654,0
-0.433,-0.317,0.085,-80.811,106.628,-121.948,0
-0.61,-0.375,0.165,-106.14,135.193,-84.167,0
-0.948,-0.724,0.256,-119.751,123.23,-43.396,0
-0.74,-1.013,0.298,-108.826,63.538,-52.795,0
-0.751,-0.729,0.24,-80.444,24.231,-95.093,0
-0.699,-0.676,0.204,-59.021,5.981,-86.243,0
-0.744,-0.736,0.223,-52.185,-0.061,-74.707,0
-0.786,-0.733,0.243,-40.466,-11.414,-61.401,0
-0.754,-0.681,0.243,-27.954,-20.691,-48.889,0
-0.742,-0.627,0.221,-26.367,-15.32,-40.039,0
-0.735,-0.615,0.257,-33.325,2.563,-20.691,0
-0.887,-0.67,0.323,-45.898,20.752,7.385,0
-0.936,-0.776,0.341,-51.758,27.71,41.748,0
-1.044,-0.787,0.341,-49.438,32.593,70.068,0
-1.047,-0.702,0.347,-42.419,30.701,99.365,0
-1.112,-0.703,0.43,-41.687,22.278,139.282,0
-1.155,-0.789,0.439,-43.701,-5.005,191.04,0
-1.037,-0.823,0.327,-36.621,-32.104,244.751,0
-0.992,-0.793,0.242,-30.579,-40.71,282.227,0
-0.966,-0.805,0.176,-39.673,-55.176,315.491,0
-0.799,-0.805,0.088,-47.058,-69.031,350.403,0
-0.659,-0.808,0.092,-52.307,-70.862,382.996,0
-0.482,-0.825,0.103,-58.167,-60.425,412.537,0
-0.253,-0.894,0.114,-61.218,-38.574,442.261,0
-0.095,-0.975,0.219,-54.382,-9.644,471.924,0
0.116,-1.074,0.295,-36.438,23.254,495.3,0
0.219,-1.111,0.297,-10.742,57.983,510.559,0
0.446,-0.989,0.293,25.574,91.431,526.978,0
0.554,-0.877,0.259,69.397,124.023,541.382,0
0.437,-0.836,0.283,113.342,148.071,539.001,0
0.373,-0.598,0.171,175.659,137.451,524.597,0
0.467,-0.168,0.004,247.62,99.609,505.798,0
0.718,0.301,-0.106,299.316,56.396,477.478,0
0.875,0.634,-0.221,311.096,15.503,435.059,0
0.952,0.769,-0.24,288.818,-20.264,377.686,0
0.998,0.907,-0.13,245.85,-51.941,307.861,0
1.092,0.958,-0.05,190.735,-84.717,243.713,0
1.297,0.955,-0.056,132.141,-115.112,197.754,0
1.454,0.956,-0.076,77.332,-121.948,159.363,0
1.49,0.902,-0.032,19.775,-102.783,119.812,0
1.509,0.756,0.033,-36.621,-75.317,80.2,0
1.529,0.643,0.087,-78.674,-42.969,48.096,0
1.48,0.532,0.118,-105.713,-6.042,21.423,0
1.376,0.397,0.137,-119.202,24.536,3.296,0
1.256,0.235,0.128,-122.559,42.786,-14.038,0
1.214,0.156,0.11,-108.032,50.049,-24.414,0
1.15,0.048,0.102,-85.205,51.575,-24.841,0
1.12,-0.011,0.08,-52.551,44.006,-10.742,0
1.131,-0.023,0.051,-23.01,29.48,-1.831,0
1.131,-0.043,0.033,-4.028,15.259,3.845,0
1.132,-0.097,0.026,8.362,4.578,9.277,0
1.115,-0.118,0.025,21.179,-3.296,14.343,0
1.112,-0.132,0.027,31.25,-9.094,16.785,0
1.12,-0.136,0.023,36.621,-12.878,16.846,0
1.104,-0.131,0.019,37.17,-13.55,15.198,0
1.085,-0.136,0.023,34.363,-11.963,16.113,0
1.065,-0.171,0.02,29.114,-10.437,17.151,0
1.101,-0.224,0.005,24.048,-10.193,13.367,0
1.143,-0.11,-0.041,23.01,-8.484,10.315,0
1.001,-0.289,0.016,17.212,-0.732,6.348,0
1.084,-0.137,-0.039,14.587,4.211,-7.385,0
1.008,-0.222,-0.041,10.62,12.878,-12.024,0
0.943,-0.075,-0.045,8.179,20.569,-11.78,0
0.942,-0.228,-0.044,1.709,21.301,-1.038,0
0.979,-0.205,-0.075,-3.479,18.311,-4.456,0
0.943,-0.205,-0.067,-2.93,19.104,-7.019,0
1.615,0.927,-0.144,-7.935,-88.562,113.403,0
1.539,1.055,-0.123,-6.47,-59.265,72.571,0
1.467,1.141,-0.1,-10.742,-38.879,33.386,0
1.44,1.174,-0.099,-18.982,-30.09,-0.244,0
1.359,1.191,-0.074,-27.1,-27.1,-26.062,0
1.31,1.239,0.007,-30.212,-25.391,-46.936,0
1.368,1.196,0.037,-36.438,-30.334,-68.665,0
1.391,1.146,0.047,-45.41,-40.039,-88.684,0
1.413,1.155,0.083,-45.532,-41.504,-104.858,0
1.43,1.198,0.132,-44.556,-35.034,-122.07,0
1.408,1.197,0.157,-44.128,-28.32,-138.062,0
1.4,1.187,0.152,-41.443,-23.132,-155.64,0
1.381,1.163,0.165,-36.865,-17.822,-172.546,0
1.351,1.132,0.177,-32.532,-13.55,-189.026,0
1.269,1.075,0.193,-29.297,-11.292,-204.163,0
1.202,1.062,0.206,-25.574,-12.085,-219.543,0
1.147,1.079,0.224,-19.531,-16.602,-234.375,0
1.119,1.075,0.214,-17.517,-24.841,-251.099,0
1.108,1.031,0.222,-19.775,-33.813,-270.935,0
1.183,0.944,0.255,-23.071,-37.292,-293.823,0
1.216,0.883,0.282,-22.156,-27.832,-316.162,0
1.211,0.853,0.293,-20.569,-6.958,-341.797,0
1.121,0.879,0.29,-18.25,23.01,-361.938,0
1.009,0.867,0.284,-22.461,53.04,-379.517,0
0.92,0.779,0.27,-30.396,80.139,-394.897,0
0.802,0.748,0.233,-36.743,100.647,-404.968,0
0.624,0.662,0.245,-42.297,111.572,-400.818,0
0.559,0.561,0.222,-52.124,113.098,-398.743,0
0.525,0.461,0.205,-60.12,111.084,-390.625,0
0.517,0.333,0.174,-69.336,110.596,-384.644,0
0.522,0.254,0.163,-76.66,113.892,-382.08,0
0.524,0.177,0.169,-81.116,122.864,-380.066,0
0.496,0.101,0.19,-85.449,137.024,-384.155,0
0.426,0.038,0.188,-86.609,152.771,-387.512,0
0.34,0.038,0.15,-83.191,166.443,-383.24,0
0.315,0.114,0.073,-81.482,183.716,-355.957,0
0.447,-0.12,0.058,-95.581,204.834,-325.5,0
-0.047,-0.36,0.119,-116.882,224.854,-368.042,0
-0.133,-0.222,0.129,-107.483,206.055,-394.287,0
-0.016,-0.101,0.128,-95.825,173.279,-368.835,0
0.048,-0.184,0.069,-110.107,168.518,-344.971,0
-0.062,-0.372,0.077,-126.953,182.739,-334.351,0
-0.292,-0.477,0.115,-132.996,182.617,-336.121,0
-0.199,-0.453,0.092,-123.291,158.813,-325.806,0
-0.235,-0.429,0.062,-115.967,148.254,-308.167,0
-0.29,-0.446,0.092,-119.629,152.344,-291.443,0
-0.32,-0.512,0.144,-125.244,159.729,-272.766,0
-0.284,-0.553,0.16,-126.465,166.26,-255.798,0
-0.411,-0.605,0.191,-124.817,169.189,-244.141,0
-0.528,-0.578,0.201,-119.263,161.072,-235.046,0
-0.586,-0.649,0.224,-107.422,145.569,-211.731,0
-0.647,-0.617,0.214,-92.041,126.343,-182.129,0
-0.581,-0.821,0.227,-82.703,99.426,-160.767,0
-0.592,-0.755,0.194,-68.909,75.623,-167.175,0
-0.639,-0.546,0.173,-40.405,64.148,-138.672,0
-0.684,-0.495,0.209,-32.532,56.335,-97.961,0
-0.685,-0.698,0.208,-41.321,37.415,-65.979,0
-0.703,-0.736,0.189,-46.265,19.531,-64.209,0
-0.727,-0.755,0.184,-42.603,4.15,-65.308,0
-0.731,-0.689,0.166,-38.452,-17.456,-69.702,0
-0.758,-0.681,0.171,-37.354,-26.611,-48.523,0
-0.788,-0.687,0.193,-41.687,-20.996,-16.968,0
-0.789,-0.722,0.23,-44.189,-7.935,21.912,0
-0.747,-0.752,0.281,-47.668,6.104,55.725,0
-0.782,-0.739,0.297,-46.326,26.428,95.947,0
-1.011,-0.708,0.326,-46.509,42.175,148.315,0
-1.124,-0.781,0.331,-54.443,19.226,203.674,0
-0.954,-0.847,0.192,-53.955,-19.104,258.057,0
-0.811,-0.834,0.01,-47.424,-32.043,309.631,0
-0.773,-0.768,-0.016,-43.884,-32.471,355.896,0
-0.75,-0.79,-0.003,-50.537,-43.518,395.264,0
-0.582,-0.851,0,-57.434,-52.124,427.612,0
-0.262,-0.916,0.061,-61.646,-42.786,456.97,0
0.011,-1.05,0.181,-60.974,-18.982,474.976,0
0.286,-1.319,0.213,-52.49,10.071,476.135,0
0.436,-1.33,0.254,-21.057,51.27,471.375,0
0.562,-1.135,0.239,28.992,103.455,463.989,0
0.559,-0.959,0.279,73.73,153.687,450.928,0
0.411,-0.854,0.256,109.497,179.26,431.885,0
0.406,-0.635,0.122,155.823,175.049,414.062,0
0.473,-0.322,0.005,203.735,157.593,395.386,0
0.416,-0.017,-0.114,234.192,124.573,372.925,0
0.586,0.16,-0.187,242.981,76.111,343.994,0
0.769,0.318,-0.25,236.816,23.56,308.899,0
0.941,0.45,-0.243,214.233,-16.418,267.395,0
1.076,0.536,-0.214,176.147,-42.847,222.778,0
1.184,0.584,-0.224,131.47,-57.617,179.016,0
1.311,0.595,-0.208,83.008,-61.584,137.939,0
1.336,0.566,-0.16,36.621,-55.359,102.539,0
1.348,0.533,-0.14,-1.099,-44.739,74.951,0
1.341,0.438,-0.124,-32.349,-27.161,55.176,0
1.311,0.327,-0.106,-52.612,-5.554,45.532,0
1.253,0.212,-0.086,-62.988,13,40.283,0
1.213,0.124,-0.081,-65.674,26.245,34.302,0
1.168,0.037,-0.084,-61.218,33.264,29.358,0
1.13,-0.037,-0.088,-49.744,33.813,27.71,0
1.11,-0.101,-0.105,-34.668,29.053,27.893,0
1.072,-0.166,-0.112,-17.7,22.217,26.245,0
1.014,-0.198,-0.113,0.427,10.925,21.179,0
0.991,-0.201,-0.12,16.174,-5.188,14.526,0
1.019,-0.183,-0.151,28.442,-20.752,12.817,0
1.064,-0.187,-0.156,37.842,-28.564,18.738,0
1.049,-0.212,-0.141,42.358,-30.579,20.752,0
1.034,-0.187,-0.13,44.617,-31.799,17.029,0
1.061,-0.161,-0.119,45.349,-31.006,14.954,0
1.038,-0.204,-0.116,41.931,-26.917,13.794,0
1.014,-0.228,-0.12,35.889,-20.447,7.141,0
1.034,-0.139,-0.155,33.508,-12.329,3.235,0
0.993,-0.17,-0.152,31.311,-3.174,12.329,0
0.958,-0.179,-0.133,14.648,3.052,-1.099,0
0.935,-0.206,-0.118,11.23,1.831,0.366,0
0.964,-0.206,-0.125,8.789,2.319,3.113,0
0.993,-0.25,-0.131,4.089,7.935,-0.427,0
0.903,-0.239,-0.108,1.404,13.733,-7.935,0
0.859,-0.249,-0.094,1.587,9.277,-9.399,0
0.846,-0.24,-0.107,4.211,-1.404,-5.066,0
0.865,-0.298,-0.112,4.333,-9.338,-4.517,0
0.858,-0.317,-0.107,3.357,-15.32,-14.954,0
0.918,-0.293,-0.131,4.272,-19.47,-26.428,0
1.859,0.663,0.154,-79.895,-66.65,-13.977,0
1.797,0.803,0.217,-69.336,-32.41,-50.781,0
1.733,0.855,0.266,-64.453,-1.465,-89.233,0
1.646,0.889,0.262,-65.063,25.452,-123.901,0
1.535,0.903,0.279,-63.354,46.875,-152.71,0
1.435,0.877,0.276,-60.364,60.181,-176.514,0
1.365,0.827,0.252,-56.152,62.256,-196.35,0
1.35,0.78,0.222,-49.255,57.678,-211.975,0
1.342,0.746,0.196,-41.687,51.27,-224.67,0
1.327,0.747,0.182,-34.485,47.058,-234.558,0
1.337,0.749,0.182,-26.672,45.227,-242.432,0
1.349,0.746,0.176,-20.325,46.936,-249.878,0
1.313,0.769,0.161,-14.038,51.086,-257.751,0
1.242,0.773,0.165,-11.475,54.871,-266.113,0
1.17,0.741,0.18,-15.015,58.777,-275.085,0
1.099,0.706,0.191,-20.569,62.012,-283.813,0
1.04,0.63,0.207,-24.902,64.88,-290.222,0
1.017,0.584,0.188,-25.391,66.833,-296.387,0
0.963,0.545,0.18,-26.062,67.871,-302.49,0
0.901,0.484,0.182,-28.87,71.899,-311.157,0
0.852,0.43,0.195,-33.142,77.698,-326.172,0
0.791,0.371,0.208,-34.912,84.961,-334.106,0
0.727,0.291,0.212,-35.645,92.224,-344.116,0
0.639,0.247,0.186,-34.363,97.778,-357.605,0
0.55,0.204,0.164,-31.921,101.99,-362.915,0
0.47,0.139,0.146,-31.738,106.445,-363.281,0
0.371,0.107,0.105,-32.776,110.229,-362.549,0
0.321,0.083,0.077,-35.217,109.314,-356.689,0
0.345,0.134,0.024,-39.185,110.352,-340.698,0
0.519,0.025,-0.005,-54.138,129.333,-323.425,0
0.451,-0.044,0.029,-79.895,166.016,-335.937,0
0.101,-0.129,0.124,-95.276,199.158,-354.797,0
0.003,-0.16,0.197,-101.196,206.299,-370.85,0
-0.009,-0.146,0.194,-101.44,202.942,-368.469,0
-0.118,-0.219,0.167,-105.652,211.609,-357.3,0
-0.37,-0.379,0.17,-111.145,215.515,-352.905,0
-0.431,-0.406,0.186,-108.459,188.538,-353.699,0
-0.421,-0.365,0.142,-101.074,156.25,-338.44,0
-0.44,-0.448,0.096,-102.356,138.489,-316.772,0
-0.475,-0.536,0.107,-106.384,125.183,-307.678,0
-0.411,-0.453,0.099,-99.304,110.229,-296.326,0
-0.462,-0.486,0.127,-95.032,104.126,-279.236,0
-0.551,-0.528,0.122,-97.412,97.717,-268.005,0
-0.52,-0.648,0.139,-91.736,90.576,-243.713,0
-0.617,-0.552,0.138,-82.153,86.243,-215.881,0
-0.57,-0.725,0.163,-77.637,79.529,-182.007,0
-0.625,-0.716,0.145,-75.317,75.134,-180.725,0
-0.688,-0.599,0.112,-59.57,77.82,-149.475,0
-0.787,-0.582,0.12,-56.519,81.421,-105.225,0
-0.851,-0.766,0.125,-63.049,68.97,-65.918,0
-0.888,-0.799,0.121,-62.927,51.331,-51.086,0
-0.888,-0.847,0.171,-58.716,38.696,-43.152,0
-0.963,-0.856,0.204,-53.711,21.057,-42.48,0
-0.929,-0.821,0.212,-40.1,0.61,-24.17,0
-0.9,-0.757,0.184,-28.87,-10.193,0.244,0
-0.88,-0.766,0.186,-21.362,-12.573,32.532,0
-0.804,-0.784,0.152,-19.47,-10.925,58.838,0
-0.75,-0.706,0.164,-18.738,4.272,90.698,0
-0.852,-0.703,0.258,-24.841,25.269,134.644,0
-0.886,-0.811,0.304,-35.828,32.349,187.683,0
-0.88,-0.864,0.295,-36.926,27.527,242.126,0
-0.888,-0.891,0.189,-29.541,20.508,294.983,0
-0.796,-0.84,0.062,-19.775,15.93,344.421,0
-0.777,-0.827,-0.063,-14.709,8.179,389.282,0
-0.739,-0.766,-0.118,-8.301,-8.057,434.875,0
-0.668,-0.666,-0.142,-1.404,-30.151,480.103,0
-0.538,-0.675,-0.115,-2.991,-52.551,518.066,0
-0.358,-0.781,-0.059,-5.066,-72.327,548.767,0
-0.005,-0.894,0.053,7.019,-89.111,569.946,0
0.305,-0.997,0.108,37.476,-92.529,576.172,0
0.551,-0.941,0.156,79.346,-72.51,569.519,0
0.721,-0.715,0.129,126.77,-35.828,553.528,0
0.753,-0.48,0.074,168.884,1.343,531.433,0
0.863,-0.166,-0.002,208.191,23.376,504.395,0
0.988,0.204,-0.017,240.723,30.579,473.938,0
1.049,0.519,-0.062,251.953,29.968,434.204,0
1.078,0.774,-0.039,234.741,25.208,381.836,0
1.184,0.936,-0.078,197.571,7.324,318.726,0
1.233,0.999,-0.146,145.63,-15.686,248.779,0
1.299,0.978,-0.101,86.609,-31.616,181.274,0
1.359,0.912,-0.046,27.71,-39.063,122.437,0
1.407,0.821,-0.007,-22.949,-39.124,74.829,0
1.434,0.716,0.026,-61.707,-29.846,37.048,0
1.407,0.583,0.07,-85.327,-14.648,10.315,0
1.369,0.435,0.079,-93.872,0.61,-5.615,0
1.287,0.306,0.053,-88.928,15.991,-11.902,0
1.239,0.203,0.042,-77.026,29.48,-12.024,0
1.2,0.068,0.017,-62.988,36.133,-9.216,0
1.123,-0.042,0.003,-46.448,36.316,-7.874,0
1.049,-0.12,0.001,-25.452,30.212,-4.456,0
0.996,-0.195,-0.003,-6.042,16.357,-4.15,0
0.999,-0.213,-0.036,13.306,-3.052,-4.639,0
0.991,-0.202,-0.061,31.25,-18.738,-0.732,0
0.968,-0.233,-0.065,40.71,-29.175,0.244,0
0.979,-0.238,-0.074,42.664,-39.368,-9.155,0
1,-0.22,-0.077,44.434,-45.41,-15.991,0
1.009,-0.188,-0.082,45.044,-42.847,-15.747,0
1,-0.166,-0.083,42.236,-32.959,-9.583,0
0.969,-0.181,-0.069,34.424,-19.714,-4.517,0
0.932,-0.203,-0.067,24.536,-9.155,-5.127,0
0.857,-0.236,-0.045,15.137,-0.488,-10.071,0
0.896,-0.116,-0.072,9.46,9.155,-6.897,0
0.788,-0.316,-0.018,-8.362,15.503,-21.545,0
0.85,-0.193,-0.025,-12.817,12.39,-39.368,0
0.785,-0.172,-0.013,-0.427,18.738,-18.494,0
0.699,-0.305,0.001,-5.127,24.658,-15.137,0
0.833,-0.246,-0.068,-8.484,22.522,-34.851,0
0.589,-0.208,-0.016,4.639,24.841,-25.818,0
0.656,-0.212,-0.008,5.676,15.381,-18.127,0
0.739,-0.334,-0.005,8.728,1.831,-9.583,0
0.692,-0.325,-0.014,13.733,0,-18.433,0
0.723,-0.271,0.003,27.893,0.732,-18.005,0
0.686,-0.21,0.013,37.659,-1.709,-12.634,0
0.648,-0.236,0.015,41.626,-8.606,-6.897,0
0.684,-0.224,0.004,45.044,-20.691,-5.188,0
0.708,-0.215,-0.008,48.889,-31.067,-2.197,0
0.724,-0.21,-0.005,49.866,-35.767,-1.404,0
0.733,-0.168,-0.008,52.49,-35.156,3.113,0
0.752,-0.165,-0.033,53.894,-30.884,10.986,0
1.571,0.742,-0.426,-37.476,-128.906,102.051,0
1.676,0.834,-0.365,-35.339,-148.193,98.083,0
1.771,0.889,-0.272,-37.415,-164.062,84.656,0
1.936,0.93,-0.143,-41.931,-171.265,60.059,0
2.129,0.907,-0.098,-49.438,-165.649,28.931,0
2.006,0.885,0.068,-58.228,-143.005,-1.526,0
2.073,0.939,0.157,-59.082,-107.117,-23.193,0
2.02,0.944,0.181,-54.504,-84.167,-53.894,0
1.983,0.923,0.263,-47.18,-66.345,-85.999,0
2.038,1.037,0.359,-34.973,-40.527,-110.535,0
2.067,1.13,0.447,-25.208,-12.451,-141.479,0
2.043,1.137,0.517,-21.912,16.724,-176.819,0
1.914,1.163,0.509,-16.296,48.035,-211.853,0
1.741,1.18,0.478,-12.817,71.594,-244.934,0
1.569,1.18,0.425,-12.634,84.351,-272.827,0
1.401,1.184,0.365,-15.076,86.67,-296.753,0
1.288,1.167,0.329,-21.545,81.116,-319.58,0
1.229,1.105,0.309,-30.823,72.449,-340.21,0
1.19,1.027,0.308,-39.185,66.956,-359.375,0
1.184,0.956,0.319,-43.884,68.665,-378.418,0
1.151,0.895,0.336,-44.983,79.834,-393.494,0
1.001,0.812,0.316,-44.006,97.656,-406.738,0
0.841,0.789,0.276,-38.574,112.549,-416.809,0
0.677,0.777,0.22,-32.898,122.009,-419.556,0
0.499,0.703,0.195,-33.508,126.038,-419.373,0
0.379,0.607,0.169,-39.978,125.854,-417.175,0
0.291,0.5,0.156,-49.866,125.61,-414.307,0
0.181,0.405,0.144,-61.89,127.808,-413.269,0
0.144,0.319,0.153,-72.998,131.714,-407.593,0
0.162,0.281,0.175,-83.313,141.113,-395.996,0
0.14,0.171,0.182,-96.741,160.583,-385.864,0
0.127,0.09,0.196,-113.159,185.852,-394.592,0
0.059,0.096,0.195,-123.108,213.196,-401.855,0
-0.111,0.089,0.223,-131.042,236.023,-395.569,0
-0.277,-0.002,0.254,-141.846,246.216,-383.423,0
-0.398,-0.14,0.274,-150.391,241.272,-371.216,0
-0.378,-0.194,0.265,-152.039,226.562,-356.14,0
-0.448,-0.219,0.271,-152.405,217.041,-338.074,0
-0.553,-0.272,0.314,-153.076,208.496,-317.871,0
-0.598,-0.36,0.302,-150.208,190.979,-300.354,0
-0.604,-0.413,0.267,-140.015,165.405,-285.889,0
-0.597,-0.419,0.244,-127.136,138.855,-271.912,0
-0.605,-0.381,0.228,-117.615,121.216,-256.47,0
-0.727,-0.429,0.272,-114.38,112.488,-239.807,0
-0.796,-0.559,0.307,-109.619,91.797,-224.609,0
-0.776,-0.514,0.308,-93.567,59.692,-212.463,0
-0.752,-0.57,0.277,-69.092,35.95,-175.171,0
-0.747,-0.678,0.236,-58.838,19.226,-163.391,0
-0.667,-0.579,0.179,-39.124,10.986,-154.907,0
-0.652,-0.506,0.163,-27.344,18.677,-115.723,0
-0.776,-0.607,0.224,-37.048,26.733,-77.393,0
-0.853,-0.671,0.246,-38.025,17.517,-38.452,0
-0.881,-0.8,0.19,-31.921,1.953,-5.31,0
-0.921,-0.761,0.137,-28.87,-12.024,-6.165,0
-0.93,-0.69,0.101,-23.804,-29.419,-0.305,0
-0.95,-0.672,0.096,-26.794,-46.265,12.878,0
-0.915,-0.708,0.167,-33.203,-56.335,34.363,0
-0.798,-0.851,0.219,-37.842,-49.988,63.171,0
-0.736,-0.913,0.183,-32.593,-26.367,96.619,0
-0.798,-0.888,0.217,-22.034,-1.831,139.587,0
-0.959,-0.883,0.255,-15.503,-0.732,196.411,0
-0.907,-0.853,0.19,-7.385,-14.099,268.738,0
-0.778,-0.791,0.025,-1.343,-25.696,349.121,0
-0.719,-0.699,-0.103,0,-36.56,421.387,0
-0.663,-0.668,-0.193,-2.563,-58.96,478.271,0
-0.481,-0.588,-0.277,-2.686,-86.06,526.184,0
-0.327,-0.516,-0.278,-2.869,-105.103,564.758,0
-0.088,-0.534,-0.172,-5.92,-117.004,588.318,0
0.249,-0.713,-0.006,-5.31,-120.117,596.497,0
0.501,-0.923,0.135,12.268,-112.183,585.693,0
0.623,-0.861,0.226,54.077,-89.966,566.833,0
0.759,-0.585,0.24,107.91,-59.753,548.706,0
0.859,-0.379,0.245,151.794,-27.405,526.367,0
0.961,-0.225,0.182,184.021,-7.996,491.333,0
1.131,0.157,0.111,208.862,1.953,444.702,0
1.132,0.461,0.033,207.031,21.24,390.198,0
1.116,0.649,0.004,176.453,44.8,332.886,0
1.119,0.667,-0.016,126.404,55.237,275.513,0
1.117,0.658,-0.012,73.853,44.983,215.759,0
1.167,0.66,0.002,27.588,21.606,155.64,0
1.215,0.598,0.043,-11.597,1.465,103.638,0
1.203,0.504,0.087,-40.527,-9.583,63.721,0
1.225,0.414,0.095,-56.274,-17.578,35.461,0
1.274,0.341,0.083,-59.814,-22.217,17.029,0
1.286,0.27,0.076,-54.749,-19.531,4.761,0
1.256,0.205,0.088,-42.908,-13.428,-1.465,0
1.206,0.14,0.083,-25.696,-10.01,0.427,0
1.156,0.088,0.058,-5.31,-8.545,4.578,0
1.078,0.036,0.046,14.465,-9.827,6.226,0
1.009,-0.003,0.048,32.288,-16.846,5.737,0
0.992,-0.032,0.051,47.302,-28.198,3.967,0
0.984,-0.046,0.055,57.739,-37.842,0.916,0
0.954,-0.068,0.051,62.622,-43.091,-3.906,0
0.912,-0.076,0.063,64.209,-43.701,-9.155,0
0.907,-0.072,0.045,62.866,-40.222,-13.489,0
0.876,-0.092,0.031,56.458,-31.921,-16.724,0
0.795,-0.142,0.035,46.143,-19.836,-22.888,0
0.727,-0.153,0.043,37.354,-9.827,-31.433,0
0.673,-0.131,0.042,30.762,-4.15,-36.133,0
0.627,-0.172,0.061,22.583,1.221,-38.513,0
0.593,-0.242,0.078,16.235,6.226,-43.396,0
0.542,-0.286,0.092,15.564,6.958,-50.049,0
0.51,-0.281,0.084,18.86,4.028,-54.626,0
0.501,-0.271,0.067,24.048,3.418,-54.565,0
0.538,-0.242,0.037,30.212,8.728,-48.584,0
0.48,-0.188,0.023,36.255,17.578,-40.771,0
0.437,-0.217,0.058,44.373,27.405,-14.16,0
0.602,-0.317,0.049,37.415,30.273,-13.184,0
0.437,-0.371,0.028,39.856,31.25,-13.611,0
0.423,-0.194,0,54.199,40.405,0,0
0.665,-0.169,-0.028,66.406,36.682,60.425,0
0.563,-0.287,-0.034,52.368,48.279,62.378,0
0.512,-0.277,-0.042,51.941,53.284,79.651,0
0.589,-0.354,-0.051,54.199,48.462,65.857,0
0.528,-0.123,-0.073,69.458,45.898,69.641,0
0.513,-0.036,-0.074,77.759,37.231,100.525,0
0.542,-0.118,-0.061,68.726,29.358,108.765,0
0.535,-0.156,-0.043,63.721,15.686,105.347,0
0.613,-0.081,-0.022,71.716,-4.822,113.098,0
1.695,0.813,-0.189,-111.206,-22.949,113.403,0
1.796,0.795,-0.127,-109.192,-15.869,97.29,0
1.82,0.823,-0.1,-98.999,-1.221,69.153,0
1.701,0.883,-0.05,-83.923,9.338,31.128,0
1.645,0.956,-0.042,-69.763,9.888,-8.423,0
1.583,1.005,-0.063,-59.021,4.15,-43.274,0
1.581,1.038,-0.038,-53.223,-6.104,-71.533,0
1.59,1.032,-0.037,-50.415,-13.916,-93.872,0
1.578,1.025,-0.026,-50.537,-17.212,-114.502,0
1.53,1.004,0.002,-49.622,-14.221,-132.996,0
1.501,1.006,0.014,-45.715,-8.85,-151.062,0
1.453,1.024,0.009,-43.274,-4.211,-168.03,0
1.413,1.023,0.01,-44.617,0.244,-185.791,0
1.365,1.001,0.026,-47.485,5.92,-204.651,0
1.315,0.992,0.056,-49.988,10.315,-223.389,0
1.258,0.96,0.101,-52.124,11.963,-240.906,0
1.213,0.932,0.12,-53.101,10.437,-258.789,0
1.161,0.905,0.129,-53.04,6.653,-275.757,0
1.107,0.876,0.135,-54.443,1.648,-289.734,0
1.087,0.797,0.161,-55.725,-2.075,-303.833,0
1.055,0.758,0.195,-53.833,-1.77,-319.092,0
1.032,0.745,0.244,-51.636,3.906,-333.679,0
1.027,0.706,0.26,-49.438,16.357,-346.191,0
0.948,0.648,0.257,-46.631,31.921,-357.666,0
0.829,0.598,0.253,-41.931,46.875,-366.455,0
0.724,0.551,0.242,-37.537,57.068,-369.08,0
0.643,0.494,0.225,-35.95,62.195,-367.432,0
0.583,0.397,0.213,-38.269,66.467,-369.202,0
0.547,0.332,0.219,-42.358,73.608,-376.465,0
0.503,0.316,0.219,-47.791,87.402,-385.01,0
0.468,0.297,0.209,-55.725,107.361,-389.771,0
0.393,0.24,0.191,-65.308,131.165,-392.761,0
0.303,0.139,0.195,-72.693,153.992,-393.921,0
0.225,0.068,0.188,-76.599,171.204,-395.508,0
0.138,0.053,0.159,-80.322,182.373,-396.79,0
0.072,-0.007,0.134,-87.891,189.392,-392.822,0
-0.069,-0.165,0.132,-96.741,191.589,-385.925,0
-0.206,-0.248,0.133,-99.426,184.448,-387.512,0
-0.228,-0.216,0.125,-95.886,169.8,-383.972,0
-0.269,-0.263,0.09,-96.741,160.217,-371.643,0
-0.334,-0.344,0.062,-100.037,156.799,-354.858,0
-0.502,-0.435,0.059,-99.915,143.86,-345.52,0
-0.468,-0.411,0.049,-92.651,114.197,-340.149,0
-0.467,-0.406,0.037,-85.266,89.172,-325.623,0
-0.355,-0.44,0.035,-82.336,80.627,-304.871,0
-0.477,-0.511,0.089,-79.285,84.351,-286.011,0
-0.484,-0.555,0.115,-69.092,79.346,-267.822,0
-0.518,-0.558,0.12,-54.81,76.355,-249.207,0
-0.573,-0.583,0.109,-40.894,79.651,-222.778,0
-0.585,-0.654,0.089,-36.255,75.684,-211.121,0
-0.624,-0.526,0.047,-24.963,69.641,-198.608,0
-0.748,-0.425,0.001,-23.01,68.726,-166.504,0
-0.81,-0.453,-0.05,-34.729,64.148,-130.615,0
-0.856,-0.481,-0.053,-52.917,53.162,-105.591,0
-0.933,-0.531,0.007,-74.036,44.617,-82.947,0
-1.059,-0.697,0.104,-95.398,38.025,-69.641,0
-1.078,-0.755,0.236,-101.44,30.579,-57.251,0
-1.055,-0.811,0.29,-89.294,36.194,-28.87,0
-1.02,-0.87,0.303,-71.167,50.354,11.963,0
-1.034,-0.897,0.314,-51.697,64.453,50.964,0
-1.17,-0.87,0.329,-32.959,72.998,93.689,0
-1.223,-0.823,0.325,-20.813,72.266,148.01,0
-1.255,-0.782,0.244,-14.893,62.5,211.06,0
-1.157,-0.733,0.172,-11.414,46.082,277.1,0
-1.135,-0.728,0.048,-10.559,25.33,339.6,0
-1.016,-0.648,-0.075,-7.812,0.061,393.86,0
-0.877,-0.592,-0.214,-8.667,-25.208,439.941,0
-0.657,-0.559,-0.283,-16.357,-43.396,480.042,0
-0.545,-0.564,-0.258,-27.039,-54.932,515.625,0
-0.347,-0.635,-0.178,-36.072,-62.378,543.213,0
-0.085,-0.725,-0.039,-36.865,-59.387,562.378,0
0.211,-0.901,0.103,-26.123,-47.302,574.341,0
0.469,-0.993,0.15,1.953,-25.635,576.965,0
0.656,-0.808,0.174,53.345,3.967,577.332,0
0.771,-0.637,0.119,108.093,38.33,566.284,0
0.867,-0.408,0.091,164.551,65.918,546.326,0
0.982,-0.015,-0.016,223.45,85.449,518.127,0
1.115,0.483,-0.09,260.132,102.478,478.455,0
1.02,0.842,-0.195,257.69,115.051,426.453,0
1.043,1.041,-0.198,219.482,103.149,362.305,0
1.121,1.014,-0.189,159.424,59.631,286.682,0
1.246,0.985,-0.151,102.478,9.705,211.975,0
1.347,0.942,-0.127,50.232,-26.611,145.264,0
1.34,0.845,-0.109,3.784,-44.617,89.233,0
1.345,0.783,-0.109,-29.114,-47.424,49.438,0
1.42,0.644,-0.104,-53.65,-40.1,25.391,0
1.388,0.484,-0.064,-69.275,-22.461,10.071,0
1.352,0.34,-0.03,-68.359,-1.038,4.944,0
1.295,0.188,-0.037,-56.946,16.724,6.958,0
1.211,0.092,-0.058,-38.757,28.198,8.789,0
1.149,0.034,-0.084,-17.517,30.884,12.634,0
1.144,-0.021,-0.118,0.854,26.611,16.846,0
1.075,-0.105,-0.117,14.709,17.395,15.137,0
0.978,-0.178,-0.101,29.663,-0.977,4.333,0
1.013,-0.134,-0.115,47.791,-28.259,-6.104,0
1.078,-0.096,-0.151,59.021,-49.5,-7.385,0
1.013,-0.144,-0.176,59.631,-55.237,-8.423,0
1.016,-0.125,-0.167,49.988,-55.664,-28.564,0
1.079,-0.1,-0.165,41.992,-52.612,-42.297,0
1.091,-0.084,-0.149,36.621,-38.757,-38.757,0
1.062,-0.078,-0.131,33.142,-19.409,-20.996,0
1.012,-0.147,-0.102,22.705,-3.967,-14.404,0
0.969,-0.174,-0.084,13.123,5.188,-22.766,0
0.904,-0.152,-0.068,8.728,9.521,-35.034,0
0.824,-0.13,-0.025,5.615,9.094,-52.246,0
0.714,-0.18,-0.004,10.193,3.906,-53.65,0
0.65,-0.283,0.005,-0.61,-10.559,-94.849,0
0.826,-0.222,-0.047,18.188,-24.475,-91.431,0
0.811,-0.009,-0.125,33.813,-19.043,-56.763,0
0.601,-0.356,-0.01,15.747,-10.315,-67.932,0
0.821,-0.167,-0.074,18.677,-14.526,-84.045,0
0.492,-0.136,-0.026,34.607,-10.925,-55.725,0
0.641,-0.271,-0.021,27.588,-17.883,-47.852,0
0.675,-0.247,-0.074,29.724,-15.564,-49.072,0
0.622,-0.228,-0.038,37.964,-0.183,-39.673,0
0.517,-0.19,0.002,41.809,8.057,-27.466,0
0.49,-0.22,0.017,41.931,3.174,-13.794,0
0.59,-0.274,-0.006,41.382,-6.897,-5.493,0
0.66,-0.269,-0.037,44.739,-11.475,2.38,0
1.869,0.872,0.088,-88.562,-134.766,68.97,0
1.896,0.874,0.172,-92.957,-95.825,40.222,0
1.782,0.922,0.242,-94.299,-52.979,3.479,0
1.65,0.907,0.318,-94.604,-22.583,-35.461,0
1.589,0.886,0.342,-90.637,-4.028,-71.594,0
1.532,0.903,0.341,-79.59,8.057,-104.065,0
1.441,0.931,0.359,-66.467,16.907,-131.653,0
1.385,0.945,0.394,-54.504,21.667,-152.649,0
1.391,0.978,0.369,-43.152,23.315,-169.495,0
1.404,1.008,0.337,-36.926,25.269,-185.425,0
1.427,1.022,0.289,-37.842,30.029,-203.796,0
1.409,1.036,0.271,-44.495,38.208,-222.9,0
1.344,1.006,0.282,-56.152,47.913,-243.53,0
1.278,0.967,0.328,-68.054,57.861,-268.372,0
1.219,0.951,0.326,-75.745,65.002,-289.551,0
1.161,0.903,0.319,-84.473,71.655,-309.326,0
1.117,0.812,0.333,-92.896,77.881,-331.482,0
1.041,0.784,0.354,-94.788,81.909,-348.999,0
1.015,0.755,0.365,-97.961,87.28,-368.164,0
0.992,0.68,0.392,-100.525,97.778,-384.705,0
0.925,0.633,0.409,-100.464,113.831,-399.658,0
0.825,0.587,0.407,-96.741,129.944,-407.104,0
0.742,0.531,0.394,-90.942,144.104,-406.311,0
0.631,0.449,0.358,-84.045,155.457,-397.766,0
0.494,0.384,0.297,-82.031,164.124,-395.935,0
0.422,0.33,0.229,-87.708,165.649,-402.466,0
0.361,0.281,0.165,-97.656,160.461,-406.006,0
0.3,0.211,0.16,-106.812,153.503,-402.161,0
0.323,0.112,0.19,-111.694,148.376,-393.25,0
0.39,0.084,0.222,-112.915,152.954,-383.911,0
0.421,0.04,0.239,-115.845,176.758,-373.657,0
0.144,-0.112,0.294,-120.483,205.383,-371.826,0
-0.058,-0.202,0.329,-119.812,209.961,-390.259,0
-0.038,-0.187,0.275,-108.887,194.641,-388.672,0
-0.18,-0.273,0.199,-104.065,187.5,-378.418,0
-0.268,-0.306,0.127,-106.201,176.636,-379.578,0
-0.338,-0.305,0.074,-106.75,160.4,-375.671,0
-0.311,-0.342,0.093,-111.45,144.836,-371.643,0
-0.315,-0.375,0.125,-116.028,141.357,-364.075,0
-0.368,-0.439,0.147,-116.333,143.738,-355.652,0
-0.416,-0.467,0.137,-107.91,137.146,-348.083,0
-0.499,-0.473,0.15,-94.299,122.864,-340.21,0
-0.584,-0.494,0.114,-80.383,104.248,-325.623,0
-0.627,-0.509,0.079,-68.115,88.44,-299.255,0
-0.643,-0.465,0.077,-62.439,75.439,-267.639,0
-0.674,-0.441,0.045,-65.674,65.063,-232.605,0
-0.769,-0.442,0.077,-76.111,58.044,-192.2,0
-0.796,-0.616,0.143,-94.299,49.927,-160.339,0
-0.85,-0.612,0.18,-101.44,39.795,-141.296,0
-0.83,-0.627,0.232,-98.328,37.17,-108.459,0
-0.804,-0.683,0.276,-96.619,42.664,-78.857,0
-0.799,-0.725,0.338,-89.478,53.467,-50.781,0
-0.819,-0.792,0.339,-76.66,62.805,-23.682,0
-0.878,-0.806,0.286,-58.35,62.744,-9.094,0
-0.885,-0.736,0.236,-41.443,60.12,-3.845,0
-0.872,-0.663,0.167,-33.63,62.5,11.841,0
-0.828,-0.607,0.142,-38.208,73.669,38.208,0
-0.893,-0.585,0.14,-51.453,87.463,72.815,0
-0.912,-0.527,0.154,-66.895,95.947,117.798,0
-0.881,-0.482,0.099,-84.961,99.731,172.424,0
-0.862,-0.451,0.11,-107.788,101.685,230.286,0
-1.057,-0.567,0.181,-133.179,84.29,287.109,0
-1.072,-0.675,0.174,-147.217,35.156,341.309,0
-0.788,-0.704,0.106,-142.212,-12.817,391.602,0
-0.545,-0.793,0.088,-132.141,-32.837,432.922,0
-0.421,-0.916,0.23,-117.859,-32.593,466.797,0
-0.289,-1.079,0.44,-93.994,-28.198,495.361,0
0.004,-1.182,0.513,-55.298,-17.822,520.447,0
0.34,-1.191,0.539,-5.981,9.46,539.368,0
0.613,-1.105,0.479,46.875,54.749,550.72,0
0.652,-0.95,0.404,105.896,108.948,557.251,0
0.433,-0.683,0.253,163.757,149.78,552.246,0
0.426,-0.314,0.031,219.666,150.024,536.926,0
0.606,0.114,-0.119,263.733,121.887,519.836,0
0.728,0.323,-0.198,283.508,76.05,491.882,0
0.913,0.522,-0.188,287.292,15.198,446.106,0
1.141,0.825,-0.095,276.245,-30.212,387.573,0
1.286,1.029,0.015,235.474,-49.377,318.97,0
1.444,1.112,0.048,171.204,-57.556,242.981,0
1.578,1.059,0.013,99.06,-59.692,167.603,0
1.603,0.923,0.006,27.527,-48.34,99.365,0
1.544,0.729,0.06,-35.828,-23.743,43.884,0
1.477,0.505,0.124,-84.167,6.287,3.723,0
1.387,0.302,0.145,-111.45,34.241,-23.254,0
1.263,0.098,0.151,-118.225,54.016,-38.025,0
1.193,-0.069,0.139,-108.093,62.073,-41.687,0
1.158,-0.192,0.097,-86.853,60.608,-36.133,0
1.063,-0.296,0.062,-61.157,55.176,-25.513,0
0.969,-0.362,0.059,-32.043,42.725,-14.038,0
0.962,-0.378,0.028,-1.831,20.569,-4.7,0
0.972,-0.381,0.011,24.536,-2.258,4.395,0
0.981,-0.365,0.003,45.349,-20.63,12.756,0
0.997,-0.334,-0.001,59.448,-35.828,20.081,0
1,-0.282,0.007,65.918,-44.739,25.33,0
1.015,-0.242,0.012,63.538,-46.997,26.611,0
1.018,-0.269,0.024,56.213,-44.434,24.536,0
0.999,-0.277,0.03,49.438,-41.138,14.954,0
0.949,-0.237,0.022,44.25,-39.978,2.319,0
0.963,-0.169,0.03,34.912,-37.17,-4.395,0
0.945,-0.224,0.059,18.555,-29.907,-8.728,0
0.93,-0.297,0.076,-0.732,-24.475,-28.32,0
0.962,-0.236,0.056,-4.578,-14.404,-38.94,0
0.939,-0.239,0.061,0.427,5.188,-20.63,0
0.865,-0.346,0.052,-5.737,20.02,-17.212,0
0.875,-0.244,0.044,-2.991,29.785,-12.451,0
0.831,-0.422,0.041,-9.155,34.851,-20.203,0
0.746,-0.185,0.042,-2.991,33.875,-23.987,0
0.824,-0.341,0.043,1.892,28.198,0.305,0
0.742,-0.37,0.057,-1.526,27.832,-12.451,0
0.751,-0.265,0.047,7.751,17.883,-12.024,0
0.747,-0.298,0.048,13.306,7.385,4.761,0
0.782,-0.307,0.041,12.451,0.671,11.414,0
0.731,-0.318,0.073,14.221,-4.089,12.817,0
0.798,-0.297,0.073,18.127,-11.108,13.855,0
0.816,-0.286,0.063,19.653,-9.338,8.911,0
0.805,-0.279,0.067,18.921,-1.831,0.244,0
0.81,-0.272,0.074,20.447,3.357,-2.197,0
0.77,-0.237,0.062,21.057,8.179,-3.174,0
0.735,-0.244,0.072,21.118,13.245,1.709,0
1.755,0.762,0.148,-53.589,-76.843,23.254,0
1.793,0.846,0.164,-46.631,-47.668,-6.348,0
1.801,0.884,0.191,-46.204,-18.677,-38.513,0
1.776,0.916,0.226,-49.927,9.705,-70.251,0
1.701,0.926,0.245,-55.298,37.598,-100.281,0
1.609,0.898,0.258,-61.768,60.181,-127.869,0
1.507,0.865,0.252,-65.918,74.829,-153.931,0
1.399,0.864,0.269,-67.444,81.482,-177.002,0
1.329,0.864,0.276,-67.871,80.322,-195.251,0
1.317,0.846,0.27,-69.458,74.341,-210.144,0
1.321,0.834,0.243,-70.679,69.519,-223.694,0
1.322,0.817,0.238,-71.533,66.833,-238.403,0
1.305,0.785,0.251,-73.73,66.895,-255.676,0
1.265,0.783,0.282,-75.867,70.618,-273.376,0
1.233,0.76,0.3,-77.515,74.951,-288.635,0
1.209,0.721,0.33,-79.773,80.566,-301.758,0
1.209,0.691,0.355,-82.092,89.355,-314.941,0
1.233,0.671,0.394,-84.045,105.164,-327.759,0
1.155,0.635,0.469,-84.9,130.676,-340.149,0
1.007,0.611,0.502,-84.167,158.264,-351.868,0
0.849,0.579,0.476,-82.947,178.284,-362.549,0
0.72,0.531,0.402,-84.229,188.293,-373.047,0
0.599,0.491,0.315,-87.83,188.538,-379.578,0
0.492,0.437,0.273,-93.628,181.946,-378.723,0
0.415,0.328,0.274,-101.563,168.823,-372.742,0
0.395,0.19,0.289,-111.145,151.672,-373.657,0
0.421,0.094,0.305,-113.342,136.23,-377.075,0
0.466,0.166,0.274,-107.971,129.822,-374.512,0
0.709,0.204,0.184,-103.638,145.813,-346.497,0
0.371,-0.049,0.224,-115.967,189.392,-332.397,0
0.141,-0.11,0.222,-128.723,205.688,-376.831,0
0.15,-0.046,0.229,-118.042,199.89,-381.958,0
-0.05,-0.156,0.217,-121.704,197.632,-384.46,0
-0.179,-0.232,0.181,-124.329,187.988,-384.888,0
-0.253,-0.284,0.147,-122.07,172.119,-375.427,0
-0.288,-0.356,0.134,-120.972,151.367,-366.211,0
-0.287,-0.371,0.115,-117.371,133.179,-358.704,0
-0.328,-0.403,0.118,-112.671,122.62,-349.731,0
-0.363,-0.409,0.134,-108.276,115.295,-340.088,0
-0.383,-0.432,0.105,-104.37,108.093,-327.759,0
-0.426,-0.454,0.067,-101.257,98.816,-316.895,0
-0.436,-0.453,0.053,-96.985,87.83,-305.054,0
-0.524,-0.476,0.087,-93.262,80.505,-288.147,0
-0.618,-0.531,0.104,-90.515,75.623,-268.555,0
-0.72,-0.569,0.105,-86.304,65.796,-248.535,0
-0.739,-0.585,0.115,-78.857,45.471,-226.257,0
-0.766,-0.591,0.152,-70.679,26.978,-197.083,0
-0.751,-0.745,0.2,-67.871,9.644,-174.194,0
-0.737,-0.725,0.181,-56.58,-3.418,-161.743,0
-0.724,-0.618,0.164,-41.565,0.977,-134.094,0
-0.77,-0.604,0.144,-40.039,18.86,-101.257,0
-0.843,-0.58,0.11,-46.57,39.429,-71.472,0
-0.929,-0.599,0.139,-55.969,58.167,-37.415,0
-1.023,-0.729,0.142,-65.857,64.087,-10.681,0
-1.066,-0.723,0.101,-67.383,59.753,0.061,0
-1.117,-0.636,0.039,-64.514,52.368,17.944,0
-1.103,-0.557,0.053,-71.838,47.729,46.326,0
-1.164,-0.605,0.187,-89.722,44.25,87.097,0
-1.135,-0.762,0.312,-107.178,38.696,139.038,0
-1.037,-0.883,0.329,-110.657,33.691,198.792,0
-0.852,-0.91,0.24,-100.769,33.569,257.996,0
-0.717,-0.899,0.152,-85.815,44.25,312.012,0
-0.723,-0.89,0.095,-72.998,56.763,358.215,0
-0.673,-0.816,0.043,-59.631,61.89,398.437,0
-0.608,-0.732,0.003,-48.279,59.57,438.11,0
-0.518,-0.653,0.007,-39.612,55.176,479.065,0
-0.413,-0.698,0.044,-32.166,44.678,518.372,0
-0.246,-0.823,0.124,-19.287,25.33,548.828,0
-0.008,-0.972,0.121,5.981,0.793,565.674,0
0.279,-0.893,0.119,49.255,-15.93,573.181,0
0.494,-0.652,0.108,103.638,-15.625,580.261,0
0.614,-0.431,0.101,147.583,1.526,584.534,0
0.609,-0.189,0.126,183.289,14.893,582.581,0
0.772,0.071,0.068,214.783,2.197,565.979,0
1.049,0.367,-0.007,239.807,-23.621,528.687,0
1.237,0.651,-0.095,246.277,-38.025,468.384,0
1.143,0.869,-0.061,226.624,-32.654,396.057,0
1.17,0.965,-0.019,188.171,-33.691,327.82,0
1.305,1.009,0.038,136.719,-43.518,262.817,0
1.364,1.053,0.107,78.247,-49.683,195.74,0
1.449,1.011,0.179,18.433,-48.889,130.188,0
1.502,0.873,0.229,-35.034,-37.17,72.876,0
1.451,0.716,0.265,-76.782,-15.625,26.123,0
1.395,0.528,0.276,-103.088,6.653,-6.897,0
1.349,0.332,0.27,-113.647,27.344,-28.625,0
1.275,0.167,0.248,-108.459,44.312,-41.016,0
1.216,0.022,0.192,-93.689,54.565,-44.983,0
1.111,-0.084,0.146,-73.975,58.594,-41.992,0
1.009,-0.187,0.113,-52.002,52.917,-34.729,0
0.966,-0.228,0.081,-28.687,36.682,-25.94,0
0.941,-0.249,0.058,-6.958,18.066,-13.123,0
0.919,-0.306,0.063,10.01,0.366,-0.305,0
0.912,-0.33,0.074,25.574,-17.578,7.507,0
0.89,-0.308,0.077,38.696,-34.546,9.705,0
0.886,-0.321,0.081,46.631,-48.828,8.606,0
0.887,-0.333,0.089,53.223,-59.937,2.075,0
0.894,-0.256,0.091,57.312,-67.2,-9.033,0
0.894,-0.195,0.077,56.152,-68.848,-13.184,0
0.828,-0.256,0.081,47.668,-63.66,-19.287,0
0.842,-0.214,0.089,38.879,-59.082,-38.391,0
0.864,-0.129,0.081,40.649,-50.11,-36.011,0
0.81,-0.109,0.087,39.307,-31.799,-16.357,0
0.808,-0.203,0.096,24.597,-16.296,-20.386,0
0.83,-0.136,0.087,21.301,-5.005,-21.79,0
0.81,-0.257,0.096,19.287,8.118,-16.785,0
0.744,-0.176,0.075,15.442,25.513,-26.55,0
0.881,-0.163,0.074,19.592,34.973,-16.907,0
0.601,-0.278,0.133,18.921,42.908,-11.536,0
0.556,-0.443,0.173,20.203,30.701,-30.945,0
0.766,-0.216,0.099,42.786,6.287,-22.644,0
0.587,-0.319,0.076,49.316,-3.296,-13.123,0
0.709,-0.266,0.029,47.974,-15.076,-15.32,0
0.75,-0.172,0.006,51.575,-20.63,2.869,0
0.727,-0.204,0.023,43.152,-18.555,17.7,0
0.732,-0.143,0.04,34.363,-17.7,30.823,0
0.742,-0.211,0.072,29.053,-17.517,46.753,0
0.75,-0.256,0.095,25.269,-21.301,51.819,0
0.787,-0.308,0.119,24.78,-25.513,44.067,0
0.847,-0.314,0.131,25.757,-26.062,25.146,0
1.762,0.524,0.426,-30.823,-118.408,4.822,0
1.722,0.513,0.496,-21.24,-86.426,-21.24,0
1.609,0.529,0.52,-6.714,-56.458,-49.683,0
1.493,0.565,0.54,9.216,-37.231,-75.073,0
1.408,0.632,0.514,25.757,-25.696,-93.384,0
1.38,0.672,0.483,39.307,-20.325,-105.835,0
1.428,0.702,0.463,46.448,-16.602,-116.455,0
1.487,0.727,0.468,45.41,-6.287,-130.371,0
1.512,0.748,0.492,36.621,14.771,-150.269,0
1.502,0.764,0.512,24.414,45.471,-173.157,0
1.473,0.747,0.526,12.512,79.651,-197.632,0
1.406,0.749,0.537,1.953,110.779,-222.9,0
1.279,0.726,0.532,-7.263,134.46,-245.85,0
1.167,0.661,0.531,-13.245,146.667,-263.977,0
1.053,0.605,0.542,-14.526,148.682,-275.818,0
1.008,0.562,0.525,-13.855,140.442,-283.081,0
1.011,0.496,0.482,-13.489,126.953,-287.598,0
1.029,0.45,0.428,-13.428,117.615,-292.236,0
1.039,0.43,0.397,-11.475,117.31,-297.729,0
1.051,0.428,0.398,-9.399,124.939,-306.091,0
1.048,0.392,0.437,-10.559,140.747,-316.65,0
1.019,0.386,0.465,-11.963,164.062,-328.613,0
0.957,0.434,0.469,-10.498,188.354,-333.74,0
0.875,0.461,0.455,-10.437,208.618,-329.712,0
0.777,0.427,0.431,-16.418,224.121,-331.421,0
0.673,0.421,0.386,-31.372,238.464,-347.29,0
0.567,0.386,0.358,-49.316,250.916,-353.638,0
0.505,0.217,0.326,-66.833,259.094,-349.67,0
0.464,0.147,0.284,-80.078,261.475,-354.431,0
0.471,0.111,0.24,-89.539,264.832,-355.713,0
0.255,-0.025,0.208,-99.609,271.851,-365.173,0
0.156,-0.099,0.206,-105.591,265.991,-388.855,0
0.108,-0.079,0.185,-104.858,257.324,-396.484,0
-0.059,-0.162,0.173,-108.643,256.226,-395.386,0
-0.087,-0.206,0.157,-114.502,253.052,-397.522,0
-0.153,-0.234,0.153,-117.554,252.319,-394.043,0
-0.334,-0.336,0.181,-121.399,248.291,-391.174,0
-0.338,-0.34,0.176,-120.422,234.802,-391.907,0
-0.439,-0.346,0.169,-114.807,225.281,-381.836,0
-0.482,-0.363,0.168,-112.061,212.036,-371.216,0
-0.473,-0.403,0.186,-107.178,197.083,-351.257,0
-0.531,-0.462,0.207,-104.065,186.646,-334.717,0
-0.61,-0.486,0.211,-97.595,172.852,-318.42,0
-0.562,-0.488,0.181,-85.815,155.823,-290.466,0
-0.611,-0.538,0.184,-78.003,145.752,-261.963,0
-0.724,-0.59,0.191,-69.092,133.118,-227.966,0
-0.674,-0.704,0.187,-60.181,109.68,-198.853,0
-0.681,-0.671,0.152,-43.762,86.792,-174.683,0
-0.668,-0.59,0.096,-28.015,66.895,-138.977,0
-0.665,-0.634,0.1,-23.071,50.72,-101.318,0
-0.647,-0.689,0.074,-23.132,32.043,-76.904,0
-0.586,-0.758,0.06,-22.766,23.315,-63.232,0
-0.595,-0.689,0.022,-21.24,20.874,-59.082,0
-0.622,-0.661,0.007,-22.583,20.752,-46.753,0
-0.714,-0.735,0.027,-29.907,14.343,-38.208,0
-0.73,-0.749,0.024,-30.518,-2.38,-29.114,0
-0.699,-0.768,0.009,-27.588,-10.498,-15.625,0
-0.665,-0.789,-0.006,-28.931,-4.028,-6.714,0
-0.693,-0.823,0.049,-33.386,14.465,-2.625,0
-0.911,-0.847,0.098,-42.603,20.508,-8.301,0
-0.841,-0.767,0.046,-43.701,16.968,-0.305,0
-0.851,-0.705,0.062,-51.208,38.269,25.635,0
-0.989,-0.765,0.127,-73.547,54.077,56.519,0
-1.027,-0.806,0.149,-88.196,59.448,99.976,0
-1.011,-0.848,0.141,-98.999,60.181,151.611,0
-1.041,-0.881,0.123,-110.107,55.725,208.008,0
-0.991,-0.876,0.093,-115.112,46.631,265.564,0
-0.933,-0.831,0.029,-113.831,32.654,323.303,0
-0.84,-0.79,-0.024,-110.596,15.259,377.93,0
-0.665,-0.779,-0.101,-108.337,-0.366,426.27,0
-0.501,-0.761,-0.056,-106.506,-5.188,466.919,0
-0.451,-0.868,0.091,-105.042,-10.803,499.146,0
-0.246,-1.006,0.186,-91.919,-19.653,524.658,0
0.113,-1.099,0.262,-61.829,-20.874,542.664,0
0.338,-1.105,0.246,-20.386,-10.132,553.467,0
0.563,-1.008,0.225,31.311,7.874,560.303,0
0.708,-0.83,0.229,85.327,41.504,558.96,0
0.738,-0.551,0.244,132.874,80.75,549.377,0
0.781,-0.256,0.184,169.067,104.431,527.832,0
0.871,0.066,0.067,194.275,112.61,491.638,0
0.859,0.33,-0.01,203.247,111.816,445.129,0
0.774,0.445,-0.036,195.496,90.576,390.32,0
0.853,0.51,-0.04,181.885,36.316,329.712,0
1.005,0.585,-0.023,159.058,-24.963,266.541,0
1.189,0.655,0.026,124.634,-65.247,208.679,0
1.361,0.613,0.081,77.515,-75.745,155.334,0
1.41,0.55,0.087,29.236,-66.528,104.858,0
1.378,0.492,0.085,-10.254,-47.607,59.631,0
1.319,0.408,0.125,-43.823,-23.987,24.414,0
1.257,0.276,0.147,-71.533,-1.343,2.136,0
1.172,0.164,0.158,-85.938,19.409,-9.521,0
1.13,0.072,0.161,-88.501,33.936,-13.428,0
1.089,-0.047,0.141,-84.656,39.734,-9.949,0
0.998,-0.181,0.133,-73.792,36.804,-4.639,0
0.946,-0.248,0.141,-54.138,24.109,-1.648,0
0.992,-0.271,0.127,-30.701,4.883,3.845,0
1.048,-0.318,0.108,-11.23,-9.094,11.78,0
0.957,-0.404,0.127,0.244,-19.409,7.507,0
1.024,-0.398,0.093,6.592,-36.255,-12.573,0
1.119,-0.286,0.056,19.348,-35.278,-17.334,0
1.073,-0.27,0.074,37.415,-19.897,19.958,0
1.046,-0.338,0.086,33.02,-9.766,30.762,0
0.987,-0.345,0.084,26.367,-4.822,24.414,0
1.077,-0.198,0.064,19.47,1.099,15.747,0
0.925,-0.422,0.068,9.155,9.216,23.132,0
1.041,-0.281,0.047,-8.362,7.69,-18.372,0
0.978,-0.233,0.031,1.77,6.348,12.451,0
0.986,-0.527,0.057,-17.639,10.986,1.526,0
0.966,-0.208,0.03,-11.841,5.31,-15.32,0
0.955,-0.426,0.062,-10.132,7.568,4.333,0
0.913,-0.392,0.068,-17.822,8.484,-7.751,0
0.945,-0.343,0.044,-14.404,3.418,-14.954,0
0.978,-0.31,0.032,-7.446,3.296,-5.188,0
0.934,-0.301,0.024,-6.226,7.69,5.371,0
0.874,-0.371,0.051,-8.789,6.958,5.432,0
0.905,-0.391,0.051,-6.348,-2.136,-9.766,0
0.942,-0.253,0.046,0.549,-8.728,-18.921,0
0.915,-0.286,0.068,1.831,-5.188,-4.395,0
0.846,-0.284,0.091,-0.671,-3.906,12.268,0
1.636,0.722,0.354,-75.867,-44.739,-114.441,0
1.572,0.769,0.431,-73.181,-17.029,-145.752,0
1.485,0.76,0.505,-69.214,6.592,-174.316,0
1.358,0.735,0.514,-62.317,21.667,-200.134,0
1.265,0.735,0.506,-52.612,29.724,-223.572,0
1.229,0.766,0.481,-42.053,33.752,-243.469,0
1.221,0.793,0.469,-36.194,34.973,-259.521,0
1.262,0.782,0.482,-36.011,41.504,-276.184,0
1.302,0.764,0.509,-37.537,58.044,-296.204,0
1.284,0.771,0.529,-39.001,82.458,-317.627,0
1.196,0.759,0.531,-40.955,112.244,-340.698,0
1.053,0.72,0.506,-43.64,140.808,-361.938,0
0.878,0.672,0.47,-46.692,158.63,-378.113,0
0.742,0.608,0.429,-51.636,163.147,-386.353,0
0.648,0.507,0.376,-56.763,158.508,-385.315,0
0.611,0.416,0.342,-59.265,151.001,-378.967,0
0.609,0.323,0.336,-58.35,147.156,-369.629,0
0.603,0.239,0.365,-57.617,151.306,-364.38,0
0.589,0.172,0.352,-59.875,165.527,-369.751,0
0.523,0.207,0.322,-62.866,184.57,-378.723,0
0.452,0.12,0.265,-64.087,201.355,-367.249,0
0.317,0,0.253,-69.275,211.67,-368.591,0
0.314,0.027,0.235,-70.129,213.074,-377.136,0
0.262,0.004,0.245,-72.327,220.154,-364.197,0
-0.112,-0.187,0.295,-84.961,225.098,-367.065,0
0.033,-0.138,0.247,-90.332,208.313,-374.268,0
-0.169,-0.259,0.221,-94.299,200.928,-359.68,0
-0.161,-0.345,0.17,-103.943,195.068,-359.07,0
-0.181,-0.38,0.161,-105.591,191.04,-351.807,0
-0.279,-0.406,0.161,-107.239,186.829,-343.994,0
-0.274,-0.446,0.159,-108.704,176.758,-341.492,0
-0.298,-0.464,0.176,-107.056,173.828,-335.693,0
-0.411,-0.486,0.186,-104.065,175.842,-324.951,0
-0.408,-0.53,0.183,-98.206,169.739,-309.387,0
-0.421,-0.569,0.164,-90.82,160.461,-296.448,0
-0.511,-0.573,0.155,-80.75,150.879,-284.302,0
-0.618,-0.59,0.146,-69.397,134.033,-267.456,0
-0.6,-0.62,0.102,-58.044,111.694,-240.784,0
-0.661,-0.575,0.042,-50.964,93.994,-213.501,0
-0.659,-0.596,0.023,-49.011,76.904,-181.885,0
-0.597,-0.62,0.051,-54.81,57.922,-161.987,0
-0.697,-0.584,0.082,-59.509,51.514,-140.137,0
-0.697,-0.657,0.137,-65.43,47.974,-114.014,0
-0.67,-0.749,0.161,-67.322,43.457,-92.285,0
-0.674,-0.807,0.164,-60.73,43.884,-73.853,0
-0.699,-0.809,0.149,-49.622,45.044,-63.354,0
-0.704,-0.738,0.121,-37.842,48.462,-51.697,0
-0.803,-0.7,0.107,-34.485,56.396,-35.645,0
-0.866,-0.656,0.085,-38.513,58.96,-18.616,0
-0.881,-0.612,0.013,-48.401,57.556,3.479,0
-0.837,-0.558,-0.014,-68.726,59.448,26.672,0
-0.938,-0.568,0.035,-97.168,65.796,53.528,0
-0.893,-0.621,0.057,-125.183,72.327,92.529,0
-0.887,-0.657,0.12,-146.973,79.651,144.592,0
-0.929,-0.729,0.193,-163.574,82.703,205.566,0
-0.972,-0.829,0.242,-169.495,71.106,269.714,0
-0.874,-0.834,0.199,-161.499,47.546,336.365,0
-0.735,-0.745,0.183,-146.24,26.672,401.245,0
-0.599,-0.792,0.265,-136.902,14.648,460.693,0
-0.447,-1.006,0.362,-126.587,1.953,505.798,0
-0.155,-1.145,0.418,-95.337,-8.118,535.461,0
0.149,-1.279,0.392,-45.41,-8.85,551.147,0
0.383,-1.208,0.389,15.015,5.371,558.899,0
0.501,-1.003,0.359,80.688,36.072,564.88,0
0.423,-0.773,0.352,135.864,76.782,568.359,0
0.351,-0.48,0.257,186.401,96.375,571.167,0
0.515,-0.09,0.16,234.985,83.862,563.293,0
0.566,0.226,0.072,262.634,49.011,537.109,0
0.676,0.529,0.026,270.752,-0.977,493.164,0
0.835,0.666,0.038,258.85,-54.321,436.646,0
1.011,0.763,0.086,230.347,-97.961,373.108,0
1.248,0.882,0.127,189.819,-124.084,307.434,0
1.499,0.998,0.158,134.705,-125.549,240.723,0
1.575,1.028,0.196,64.819,-100.403,171.021,0
1.609,0.953,0.285,-7.69,-54.932,105.53,0
1.534,0.799,0.366,-72.205,-5.615,50.11,0
1.428,0.616,0.391,-120.483,32.654,6.775,0
1.356,0.44,0.384,-144.47,60.852,-21.362,0
1.252,0.247,0.35,-148.926,82.092,-37.598,0
1.132,0.056,0.324,-137.817,91.431,-47.424,0
1.078,-0.052,0.268,-115.295,83.374,-52.307,0
1.1,-0.112,0.208,-86.365,70.74,-39.917,0
1.017,-0.261,0.179,-63.11,60.364,-30.212,0
1.018,-0.26,0.163,-33.508,43.03,-16.357,0
0.996,-0.366,0.149,-7.751,25.574,-0.916,0
1.001,-0.369,0.128,16.846,7.019,8.423,0
1,-0.326,0.101,37.048,-7.385,16.846,0
0.98,-0.358,0.104,44.617,-16.785,21.484,0
1.009,-0.309,0.091,46.143,-26.855,21.667,0
1.016,-0.285,0.079,43.213,-32.227,26.123,0
0.982,-0.356,0.108,34.729,-31.25,23.987,0
0.988,-0.328,0.112,29.602,-32.41,15.808,0
0.975,-0.325,0.094,22.339,-33.325,4.578,0
1.045,-0.271,0.085,15.503,-27.832,-3.601,0
1.021,-0.249,0.08,11.23,-14.465,5.859,0
1.003,-0.261,0.091,4.761,-0.793,15.869,0
0.979,-0.257,0.106,-2.747,8.423,14.282,0
0.899,-0.317,0.133,-10.62,13.367,5.432,0
0.985,-0.23,0.106,-13.916,14.099,-2.441,0
0.971,-0.405,0.069,-19.287,15.503,-18.799,0
0.942,-0.126,0.086,-16.724,20.02,-39.978,0
0.919,-0.179,0.098,-4.395,20.325,0.854,0
0.816,-0.354,0.132,-12.878,15.259,7.263,0
0.933,-0.237,0.086,-6.592,0.732,3.235,0
0.99,-0.223,0.096,-0.305,1.038,8.24,0
0.837,-0.287,0.142,-5.188,4.211,0.305,0
0.884,-0.161,0.14,-0.977,-3.479,0.977,0
0.915,-0.231,0.139,-2.014,-9.094,13.977,0
0.91,-0.277,0.149,-6.348,-9.888,14.832,0
0.931,-0.294,0.162,-5.798,-9.155,4.15,0
0.891,-0.211,0.163,-2.197,-7.568,-2.136,0
0.901,-0.261,0.17,-3.113,-5.92,-1.343,0
0.894,-0.293,0.174,-4.7,-4.211,-7.935,0
0.9,-0.192,0.163,-0.183,-2.502,-12.085,0
0.877,-0.2,0.161,1.465,-0.061,-1.465,0
0.873,-0.273,0.156,-3.54,0.366,1.465,0
0.892,-0.236,0.15,-1.709,-2.075,1.038,0
0.885,-0.237,0.148,0.671,-2.502,3.967,0
0.9,-0.246,0.142,0.671,-1.404,7.324,0
1.626,0.896,0.239,80.444,-174.255,81.909,0
1.6,0.807,0.26,98.145,-149.231,50.354,0
1.656,0.819,0.229,125.793,-126.404,22.888,0
1.606,0.999,0.179,149.353,-98.877,-8.545,0
1.544,1.194,0.156,155.518,-74.89,-34.241,0
1.552,1.208,0.149,146.179,-56.58,-57.617,0
1.54,1.207,0.16,133.85,-38.391,-81.177,0
1.505,1.257,0.214,118.347,-23.193,-104.248,0
1.523,1.275,0.264,94.788,-9.888,-130.249,0
1.487,1.201,0.31,68.481,2.319,-157.776,0
1.443,1.131,0.355,48.096,12.268,-183.594,0
1.406,1.065,0.388,35.278,20.935,-212.097,0
1.37,1.034,0.424,26.855,30.457,-240.967,0
1.359,1.025,0.451,21.301,41.809,-263.306,0
1.313,0.946,0.473,16.479,57.068,-283.264,0
1.243,0.894,0.465,15.503,73.486,-309.021,0
1.159,0.882,0.44,17.7,87.891,-335.388,0
1.074,0.874,0.399,15.991,102.173,-358.215,0
0.977,0.86,0.364,11.047,116.821,-376.16,0
0.88,0.819,0.33,4.15,128.845,-388.184,0
0.801,0.757,0.314,-5.371,138.123,-395.935,0
0.737,0.702,0.306,-16.113,145.874,-400.94,0
0.697,0.667,0.323,-28.259,154.541,-402.71,0
0.647,0.597,0.376,-41.565,163.086,-403.076,0
0.598,0.512,0.425,-52.307,169.189,-397.4,0
0.542,0.427,0.449,-52.002,175.293,-377.075,0
0.508,0.325,0.421,-46.57,184.814,-360.779,0
0.464,0.306,0.385,-49.744,196.96,-378.235,0
0.403,0.288,0.377,-54.749,210.022,-388.367,0
0.352,0.26,0.37,-60.547,221.863,-388.977,0
0.273,0.216,0.376,-67.505,228.516,-388.184,0
0.156,0.122,0.38,-73.853,231.262,-387.024,0
0.107,0.044,0.364,-77.148,227.356,-389.099,0
0.192,0.068,0.288,-77.148,224.609,-384.705,0
0.244,0.028,0.25,-83.862,238.22,-374.451,0
-0.244,-0.191,0.287,-94.91,249.146,-382.629,0
-0.157,-0.124,0.25,-90.881,226.379,-401.489,0
-0.043,-0.107,0.182,-85.205,209.167,-385.803,0
-0.284,-0.232,0.156,-97.046,211.609,-382.324,0
-0.205,-0.24,0.146,-100.83,205.627,-382.141,0
-0.367,-0.294,0.185,-99.792,204.041,-373.962,0
-0.417,-0.353,0.176,-100.464,192.139,-376.465,0
-0.373,-0.323,0.17,-92.102,186.768,-360.657,0
-0.562,-0.375,0.161,-90.027,188.904,-344.543,0
-0.598,-0.413,0.143,-88.928,178.894,-331.238,0
-0.625,-0.414,0.108,-85.388,166.992,-311.707,0
-0.71,-0.409,0.085,-86.243,159.668,-286.133,0
-0.851,-0.436,0.078,-93.872,144.47,-264.16,0
-0.867,-0.461,0.108,-100.342,123.413,-239.502,0
-1.001,-0.456,0.147,-107.971,111.206,-212.341,0
-1.041,-0.602,0.185,-117.004,102.661,-180.054,0
-1.054,-0.673,0.193,-117.432,91.736,-162.17,0
-1.121,-0.67,0.196,-104.187,84.656,-132.568,0
-1.135,-0.725,0.236,-91.003,81.848,-94.604,0
-0.988,-0.797,0.22,-78.247,91.248,-49.438,0
-0.926,-0.787,0.248,-68.481,125.732,2.014,0
-1.13,-0.815,0.282,-66.528,157.593,53.284,0
-1.221,-0.76,0.25,-64.026,169.312,107.971,0
-1.293,-0.649,0.167,-62.5,163.879,171.692,0
-1.245,-0.575,0.102,-69.153,142.151,240.967,0
-1.094,-0.592,-0.009,-81.177,112.854,314.331,0
-1.008,-0.634,-0.063,-91.919,82.764,380.92,0
-0.98,-0.672,-0.107,-97.839,46.692,440.002,0
-0.797,-0.665,-0.124,-97.839,9.033,492.249,0
-0.617,-0.65,-0.027,-92.163,-17.09,540.527,0
-0.451,-0.79,0.123,-78.674,-36.56,580.017,0
-0.164,-0.948,0.207,-50.11,-57.251,606.934,0
0.236,-0.921,0.269,-3.784,-65.002,623.962,0
0.519,-0.758,0.245,45.532,-48.218,631.042,0
0.742,-0.614,0.219,85.938,-9.949,628.662,0
0.807,-0.403,0.216,124.023,33.63,621.704,0
0.852,-0.15,0.101,164.49,64.819,600.098,0
1.04,0.197,0.085,197.266,72.937,560.852,0
1.024,0.474,0.077,207.642,62.561,497.131,0
1.033,0.689,0.073,196.838,42.236,418.03,0
0.939,0.806,0.138,167.786,17.7,332.52,0
0.951,0.895,0.204,128.113,-19.043,252.014,0
1.067,0.848,0.201,82.52,-65.43,185.547,0
1.211,0.779,0.164,39.063,-102.417,129.272,0
1.346,0.757,0.147,3.906,-110.596,85.083,0
1.401,0.698,0.191,-31.738,-86.365,50.293,0
1.404,0.583,0.274,-65.613,-45.227,25.757,0
1.347,0.424,0.332,-90.271,-4.211,9.216,0
1.25,0.268,0.35,-99.731,28.87,-0.977,0
1.158,0.155,0.343,-93.994,49.255,-3.296,0
1.083,0.072,0.316,-78.613,56.702,0.732,0
1.063,0.006,0.271,-59.082,52.368,7.812,0
1.03,-0.058,0.232,-39.246,44.25,15.198,0
0.987,-0.128,0.196,-20.386,32.593,20.691,0
0.97,-0.166,0.151,0.366,15.381,24.597,0
0.99,-0.142,0.142,21.484,-3.052,28.137,0
1.025,-0.115,0.122,36.682,-18.311,33.386,0
1.062,-0.104,0.104,42.48,-27.954,36.194,0
1.054,-0.082,0.106,42.053,-29.541,34.729,0
1.003,-0.134,0.142,34.058,-28.809,22.827,0
1.117,-0.097,0.099,22.4,-32.532,-0.366,0
1.097,0.025,0.084,26.245,-15.381,21.729,0
0.976,-0.128,0.131,12.695,6.714,36.621,0
0.999,-0.152,0.127,-2.197,10.071,17.395,0
0.893,-0.302,0.176,-4.333,5.554,-7.385,0
1.026,-0.14,0.129,-2.686,-2.197,-36.804,0
0.903,-0.085,0.144,9.155,6.165,-8.545,0
0.87,-0.338,0.17,-2.93,9.888,-11.23,0
0.774,-0.226,0.176,3.052,1.282,-29.541,0
0.849,-0.166,0.128,16.113,-13.855,-26.489,0
0.902,-0.164,0.091,17.883,-13.977,-23.315,0
0.818,-0.162,0.098,14.465,-8.301,-21.484,0
0.855,-0.141,0.109,12.451,-7.751,-14.709,0
0.869,-0.114,0.105,11.23,-7.202,-0.427,0
0.903,-0.289,0.146,4.639,-2.991,0.244,0
0.861,-0.056,0.137,8.057,5.432,9.521,0
0.879,-0.261,0.186,4.761,13.672,18.311,0
0.735,-0.279,0.239,4.395,15.869,1.953,0
0.85,-0.27,0.202,14.526,-0.305,-12.756,0
0.874,-0.157,0.158,28.503,-7.751,-15.32,0
0.843,-0.201,0.142,28.137,-7.629,-20.569,0
0.856,-0.143,0.144,26.611,-10.315,-28.625,0
0.805,-0.071,0.134,28.809,-15.869,-15.442,0
0.816,-0.138,0.136,21.301,-19.592,-5.859,0
1.76,0.647,-0.343,-18.799,-114.624,66.895,0
1.812,0.729,-0.332,-27.283,-101.257,64.636,0
1.849,0.778,-0.304,-41.443,-80.139,59.021,0
1.858,0.832,-0.287,-58.533,-54.932,50.842,0
1.827,0.899,-0.267,-77.026,-28.625,41.809,0
1.728,0.94,-0.252,-95.398,-5.92,32.654,0
1.599,0.951,-0.21,-113.647,7.141,22.4,0
1.456,0.965,-0.165,-129.028,8.667,11.902,0
1.401,0.94,-0.092,-141.541,-0.366,2.075,0
1.456,0.877,-0.003,-149.231,-17.151,-8.545,0
1.574,0.855,0.038,-146.118,-35.522,-24.841,0
1.614,0.866,0.086,-136.169,-46.204,-49.255,0
1.609,0.906,0.18,-124.634,-45.288,-79.346,0
1.623,0.945,0.249,-110.474,-38.757,-112.183,0
1.615,0.94,0.272,-94.666,-29.114,-145.996,0
1.548,0.954,0.3,-75.989,-18.494,-179.321,0
1.453,1,0.273,-54.504,-9.338,-209.045,0
1.353,1.02,0.235,-39.307,-1.404,-234.497,0
1.279,0.999,0.184,-32.471,4.883,-255.249,0
1.215,0.983,0.155,-29.663,6.836,-272.278,0
1.155,0.965,0.162,-29.419,6.287,-286.133,0
1.111,0.933,0.185,-29.724,5.737,-298.34,0
1.108,0.883,0.216,-30.945,5.737,-313.293,0
1.094,0.803,0.28,-31.616,11.841,-329.468,0
1.074,0.766,0.322,-28.625,26.184,-345.642,0
1.004,0.766,0.308,-23.376,44.067,-361.145,0
0.876,0.765,0.276,-21.79,61.707,-372.803,0
0.725,0.728,0.238,-24.963,75.317,-376.953,0
0.606,0.667,0.196,-30.396,83.313,-369.995,0
0.529,0.564,0.162,-38.818,90.576,-358.582,0
0.445,0.462,0.152,-51.941,99.792,-358.093,0
0.401,0.356,0.196,-65.674,109.009,-365.601,0
0.441,0.282,0.259,-73.669,121.582,-368.408,0
0.455,0.195,0.283,-76.843,144.165,-367.432,0
0.362,0.177,0.258,-80.078,173.279,-387.939,0
0.214,0.201,0.208,-81.177,199.524,-409.485,0
-0.023,0.171,0.166,-86.426,215.149,-421.387,0
-0.148,0.123,0.142,-96.68,213.257,-422.791,0
-0.166,0.067,0.107,-108.582,199.829,-411.011,0
-0.28,-0.069,0.094,-122.314,186.829,-399.841,0
-0.299,-0.176,0.089,-131.897,173.584,-396.851,0
-0.364,-0.235,0.123,-135.01,163.452,-395.447,0
-0.42,-0.29,0.133,-135.803,155.518,-398.01,0
-0.519,-0.308,0.153,-131.775,152.954,-397.705,0
-0.673,-0.331,0.152,-126.465,148.437,-395.02,0
-0.762,-0.351,0.118,-119.385,133.728,-384.338,0
-0.762,-0.339,0.088,-113.525,114.929,-369.385,0
-0.834,-0.348,0.099,-112.305,101.685,-348.328,0
-0.911,-0.382,0.103,-115.173,86.731,-326.111,0
-0.826,-0.459,0.136,-115.479,74.768,-288.879,0
-0.933,-0.501,0.202,-119.324,73.059,-256.104,0
-0.898,-0.724,0.316,-118.835,75.195,-206.97,0
-0.844,-0.859,0.343,-110.168,77.576,-179.565,0
-0.945,-0.745,0.326,-82.947,82.336,-149.658,0
-0.959,-0.709,0.303,-59.692,87.769,-97.107,0
-0.973,-0.738,0.258,-50.415,89.111,-56.519,0
-0.969,-0.719,0.211,-40.466,87.28,-21.729,0
-1.026,-0.727,0.181,-35.706,83.923,3.357,0
-1.082,-0.744,0.16,-35.278,72.449,13.489,0
-1.054,-0.696,0.135,-33.203,54.626,20.02,0
-1.026,-0.634,0.098,-32.654,39.734,36.804,0
-0.953,-0.634,0.085,-39.795,34.058,60.364,0
-0.917,-0.644,0.153,-53.284,41.687,87.219,0
-0.915,-0.728,0.282,-66.162,61.218,125.549,0
-0.783,-0.814,0.274,-72.571,87.402,173.035,0
-0.759,-0.793,0.251,-73.608,116.821,229.004,0
-0.963,-0.801,0.205,-76.477,129.761,288.086,0
-0.939,-0.794,0.145,-74.646,117.31,352.234,0
-0.813,-0.775,0.064,-67.749,94.788,414.429,0
-0.752,-0.793,0.089,-57.556,68.665,469.116,0
-0.683,-0.853,0.113,-40.955,30.823,512.146,0
-0.518,-0.866,0.142,-12.573,-11.963,542.419,0
-0.285,-0.837,0.198,21.484,-51.514,563.049,0
0.027,-0.861,0.236,56.213,-81.909,574.585,0
0.332,-0.748,0.269,96.436,-95.154,578.003,0
0.6,-0.6,0.267,139.526,-84.412,572.693,0
0.677,-0.482,0.229,172.607,-57.312,558.228,0
0.731,-0.23,0.162,204.651,-33.936,539.062,0
0.936,0.108,0.081,232.727,-24.658,513.184,0
1.131,0.42,-0.005,238.647,-21.667,475.647,0
1.234,0.596,0.03,216.187,-7.08,422.913,0
1.271,0.651,0.114,176.575,13.123,356.812,0
1.174,0.649,0.155,131.653,25.085,281.128,0
1.14,0.663,0.148,90.149,17.151,207.825,0
1.157,0.595,0.147,47.852,-3.601,143.188,0
1.201,0.514,0.134,10.742,-26.001,91.614,0
1.229,0.408,0.114,-16.968,-39.429,53.162,0
1.243,0.321,0.118,-36.011,-40.405,25.208,0
1.204,0.241,0.154,-48.279,-34.424,5.615,0
1.188,0.138,0.165,-52.673,-27.344,-4.395,0
1.199,0.061,0.191,-48.096,-18.555,-5.188,0
1.192,-0.013,0.202,-38.147,-8.789,1.099,0
1.187,-0.087,0.188,-25.879,-0.427,11.169,0
1.151,-0.13,0.174,-11.719,6.775,20.874,0
1.089,-0.171,0.166,1.282,8.484,28.564,0
1.059,-0.208,0.151,13.611,1.953,33.691,0
1.069,-0.218,0.128,25.696,-8.972,35.645,0
1.08,-0.214,0.108,33.691,-19.226,33.569,0
1.081,-0.22,0.092,36.438,-27.1,27.161,0
1.08,-0.222,0.061,36.316,-31.372,18.127,0
1.055,-0.206,0.053,33.386,-31.006,6.409,0
1.053,-0.157,0.051,25.391,-29.541,-3.601,0
1.068,-0.14,0.039,12.39,-24.048,-3.601,0
0.966,-0.341,0.075,-7.202,-17.09,-15.93,0
1.064,-0.288,0.073,-24.963,-19.958,-56.274,0
1.05,-0.187,0.046,-13.184,-6.287,-29.846,0
0.976,-0.328,0.088,-16.663,13.55,-2.93,0
0.907,-0.439,0.118,-25.085,18.921,-11.536,0
0.942,-0.273,0.079,-15.564,18.372,-2.441,0
0.924,-0.432,0.093,-23.193,15.991,-15.93,0
0.909,-0.236,0.082,-16.724,6.592,-22.888,0
0.848,-0.394,0.097,-10.559,1.221,-6.409,0
0.971,-0.397,0.075,-15.747,-4.639,-33.508,0
0.865,-0.24,0.087,0.122,-4.517,-26.306,0
0.765,-0.231,0.105,2.625,-6.042,-3.601,0
0.866,-0.303,0.104,-0.305,-16.296,14.832,0
0.867,-0.33,0.109,-1.953,-23.376,14.099,0
0.816,-0.287,0.122,-0.671,-23.743,5.066,0
0.947,-0.25,0.119,-3.723,-18.433,-9.949,0
1.86,0.618,0.313,-30.151,-157.471,-27.893,0
1.847,0.608,0.406,-30.762,-141.541,-50.842,0
1.796,0.678,0.441,-23.56,-117.676,-69.214,0
1.73,0.707,0.475,-19.592,-93.75,-89.905,0
1.717,0.73,0.513,-17.029,-68.359,-113.464,0
1.683,0.787,0.537,-14.587,-38.757,-136.78,0
1.601,0.811,0.567,-16.724,-8.667,-159.18,0
1.487,0.801,0.592,-21.606,18.982,-181.58,0
1.401,0.776,0.604,-25.085,41.443,-204.163,0
1.309,0.738,0.607,-26.978,57.251,-225.342,0
1.219,0.718,0.589,-25.94,65.552,-246.094,0
1.176,0.699,0.58,-24.658,69.519,-266.174,0
1.111,0.696,0.581,-23.926,75.439,-285.095,0
1.031,0.697,0.583,-22.766,82.092,-300.537,0
0.985,0.676,0.584,-22.278,85.815,-313.232,0
0.952,0.667,0.59,-21.729,87.83,-323.059,0
0.939,0.611,0.608,-21.973,91.614,-330.994,0
0.983,0.553,0.655,-19.592,101.929,-338.745,0
0.967,0.53,0.682,-13.916,121.582,-345.093,0
0.889,0.535,0.689,-7.568,147.217,-349.915,0
0.779,0.57,0.657,-1.648,172.302,-349.06,0
0.665,0.581,0.599,2.258,189.392,-341.309,0
0.586,0.535,0.546,-0.977,197.083,-340.454,0
0.531,0.462,0.508,-10.681,202.148,-354.614,0
0.546,0.361,0.489,-17.639,205.139,-362.671,0
0.567,0.304,0.473,-19.592,209.961,-362.549,0
0.501,0.191,0.462,-19.104,218.262,-359.009,0
0.426,0.156,0.442,-17.639,225.22,-375.732,0
0.482,0.24,0.384,-13.367,230.652,-382.568,0
0.365,0.178,0.343,-17.273,249.207,-374.451,0
-0.08,-0.013,0.333,-27.771,256.775,-392.7,0
0.138,0.123,0.267,-27.527,234.192,-407.043,0
-0.108,0.005,0.201,-36.255,219.788,-397.705,0
-0.071,-0.109,0.141,-50.476,209.961,-400.391,0
-0.107,-0.156,0.109,-57.068,204.529,-394.592,0
-0.236,-0.254,0.118,-62.073,203.491,-387.085,0
-0.181,-0.319,0.092,-61.829,195.618,-383.24,0
-0.209,-0.325,0.051,-57.678,190.979,-378.418,0
-0.314,-0.332,0.024,-56.03,188.416,-368.53,0
-0.407,-0.309,0.032,-57.739,184.57,-353.882,0
-0.526,-0.354,0.035,-62.683,179.932,-338.623,0
-0.656,-0.42,0.046,-66.589,168.152,-322.815,0
-0.781,-0.433,0.049,-64.026,149.658,-300.354,0
-0.784,-0.533,0.053,-60.974,130.432,-267.578,0
-0.905,-0.51,0.031,-59.998,109.436,-243.347,0
-0.918,-0.518,0.051,-56.885,90.149,-204.346,0
-0.889,-0.602,0.073,-61.829,76.172,-178.101,0
-1.009,-0.581,0.088,-61.829,64.697,-157.349,0
-0.957,-0.593,0.102,-56.946,56.091,-120.728,0
-0.98,-0.59,0.075,-56.213,56.519,-88.44,0
-0.948,-0.638,0.014,-55.481,58.105,-54.077,0
-1.006,-0.656,0.025,-59.937,61.462,-45.41,0
-1.106,-0.597,0.104,-62.805,61.279,-41.443,0
-1.104,-0.681,0.145,-66.345,63.599,-19.104,0
-1.096,-0.758,0.171,-65.735,70.313,9.705,0
-1.051,-0.769,0.168,-58.533,80.811,49.683,0
-1.031,-0.732,0.168,-53.772,102.905,104.431,0
-1.072,-0.682,0.118,-59.753,129.639,168.457,0
-0.996,-0.608,0.068,-75.073,149.353,243.774,0
-1.162,-0.625,0.085,-99.67,144.836,325.989,0
-1.16,-0.681,0.01,-116.272,107.178,410.217,0
-1.014,-0.673,-0.076,-115.356,52.917,494.019,0
-0.839,-0.693,-0.095,-106.14,-1.282,562.805,0
-0.522,-0.826,-0.105,-89.294,-49.744,607.666,0
-0.149,-0.923,0,-56.641,-83.313,635.742,0
0.271,-1.057,0.125,-9.338,-96.497,650.024,0
0.471,-0.959,0.22,49.5,-87.708,650.208,0
0.71,-0.699,0.28,110.168,-61.829,644.958,0
0.785,-0.435,0.293,162.048,-31.189,635.742,0
0.917,-0.182,0.152,210.571,-16.602,609.192,0
1.052,0.243,0.03,251.526,-18.677,564.636,0
1.218,0.705,-0.007,261.353,-7.812,502.075,0
1.159,0.752,0.042,227.844,11.169,425.171,0
1.206,0.821,0.15,181.274,17.822,346.375,0
1.203,0.83,0.168,124.146,10.864,264.709,0
1.258,0.822,0.138,61.218,-5.371,182.617,0
1.301,0.733,0.156,4.272,-15.564,112.915,0
1.264,0.565,0.139,-46.692,-15.259,55.115,0
1.269,0.481,0.132,-83.191,-5.31,13.977,0
1.256,0.342,0.121,-109.07,12.878,-11.78,0
1.224,0.206,0.148,-123.047,32.166,-26.611,0
1.179,0.046,0.16,-122.925,47.607,-30.457,0
1.128,-0.095,0.154,-109.009,58.105,-26.001,0
1.007,-0.211,0.131,-85.999,59.021,-17.395,0
0.998,-0.234,0.1,-57.373,48.828,-4.211,0
0.962,-0.298,0.073,-31.006,36.133,10.925,0
0.937,-0.333,0.038,-7.751,18.372,20.874,0
0.964,-0.329,0.003,15.564,-3.296,30.151,0
1.028,-0.308,-0.013,33.081,-20.02,36.377,0
1.076,-0.271,-0.02,42.419,-28.503,38.147,0
1.077,-0.261,-0.017,43.152,-30.029,34.729,0
1.112,-0.214,-0.021,39.612,-28.442,28.625,0
1.128,-0.188,-0.025,30.945,-22.095,23.499,0
1.071,-0.226,-0.019,17.761,-11.597,17.212,0
1.033,-0.231,-0.002,6.226,-6.165,7.263,0
1.04,-0.219,-0.026,-3.479,-6.042,1.099,0
1.013,-0.284,-0.02,-18.921,-4.944,-10.315,0
1.069,-0.299,-0.015,-29.663,-3.235,-25.024,0
1.068,-0.271,-0.02,-24.231,6.592,-14.343,0
1.029,-0.31,-0.011,-22.4,16.235,-4.883,0
0.989,-0.302,-0.015,-24.231,16.907,-8.606,0
0.935,-0.351,-0.008,-22.461,13.245,-11.169,0
1.022,-0.21,-0.053,-21.484,7.568,-16.479,0
0.934,-0.288,-0.014,-17.456,6.042,-0.488,0
0.93,-0.324,0.018,-23.437,-1.526,-12.878,0
0.91,-0.255,0.021,-15.32,-13.489,-10.01,0
0.983,-0.339,0.02,-15.137,-18.921,-7.324,0
0.993,-0.285,0.023,-13.123,-15.625,-12.207,0
0.898,-0.26,0.058,-9.766,-9.338,-8.789,0
0.91,-0.222,0.05,-9.277,-10.742,1.953,0
0.949,-0.212,0.029,-11.963,-11.719,12.451,0
0.879,-0.346,0.072,-18.494,-9.094,8.179,0
0.924,-0.323,0.069,-25.024,-6.47,-25.208,0
0.937,-0.248,0.067,-19.043,-0.488,-31.189,0
0.866,-0.309,0.059,-22.156,6.714,-28.076,0
0.828,-0.264,0.099,-25.024,11.597,-31.372,0
0.827,-0.285,0.091,-24.658,4.028,-17.395,0
0.846,-0.304,0.073,-24.353,-0.183,-8.423,0
0.802,-0.333,0.082,-21.423,0,-9.216,0
1.685,0.789,-0.077,-49.622,-153.32,52.063,0
1.741,0.857,-0.03,-53.223,-127.747,43.64,0
1.757,0.879,0.081,-58.777,-97.29,29.968,0
1.715,0.861,0.207,-62.622,-65.674,11.841,0
1.674,0.823,0.307,-61.707,-42.297,-11.292,0
1.655,0.88,0.4,-56.58,-28.137,-41.504,0
1.644,0.969,0.482,-49.927,-18.677,-76.538,0
1.636,1.047,0.537,-45.593,-8.728,-109.802,0
1.621,1.107,0.542,-44.678,4.578,-141.418,0
1.552,1.146,0.529,-45.898,21.057,-172.119,0
1.462,1.186,0.532,-48.584,38.208,-201.599,0
1.385,1.197,0.536,-51.819,54.077,-229.309,0
1.3,1.157,0.543,-56.824,66.65,-256.714,0
1.226,1.088,0.555,-59.509,75.989,-283.997,0
1.167,1.059,0.577,-56.458,82.214,-311.035,0
1.163,1.066,0.628,-49.133,87.708,-337.28,0
1.145,1.064,0.655,-42.725,97.595,-362.732,0
1.07,1.072,0.63,-38.757,112.427,-387.024,0
0.979,1.049,0.587,-37.72,128.418,-410.828,0
0.903,1.024,0.537,-37.964,143.494,-430.298,0
0.813,0.964,0.477,-40.039,158.63,-446.289,0
0.744,0.892,0.425,-44.067,174.255,-458.374,0
0.599,0.857,0.407,-48.889,189.819,-463.684,0
0.467,0.789,0.396,-55.969,200.5,-464.722,0
0.354,0.721,0.349,-62.195,203.369,-459.045,0
0.294,0.617,0.293,-71.228,204.895,-458.801,0
0.218,0.508,0.271,-87.769,213.074,-475.464,0
0.131,0.45,0.288,-100.159,224.365,-486.45,0
0.031,0.454,0.291,-107.483,233.398,-479.858,0
0.02,0.322,0.257,-116.089,240.112,-458.435,0
-0.056,0.208,0.201,-132.324,251.099,-460.937,0
-0.19,0.154,0.181,-147.644,263.977,-479.248,0
-0.38,0.068,0.191,-157.41,266.602,-486.755,0
-0.562,-0.024,0.214,-161.316,250.427,-485.413,0
-0.607,-0.104,0.216,-158.569,218.75,-479.431,0
-0.685,-0.151,0.181,-152.771,183.899,-466.309,0
-0.642,-0.183,0.173,-147.4,161.438,-445.679,0
-0.828,-0.316,0.216,-144.836,144.104,-421.387,0
-0.893,-0.4,0.213,-135.437,108.154,-403.137,0
-0.819,-0.339,0.168,-116.333,69.641,-371.643,0
-0.785,-0.366,0.165,-107.422,52.734,-328.003,0
-0.772,-0.471,0.244,-112.061,55.42,-289.368,0
-0.879,-0.613,0.334,-112.122,61.401,-249.512,0
-0.857,-0.742,0.368,-101.135,54.504,-207.458,0
-0.908,-0.693,0.353,-82.214,51.025,-165.1,0
-0.931,-0.746,0.336,-64.514,57.129,-106.934,0
-0.943,-0.808,0.274,-53.162,54.749,-75.134,0
-0.999,-0.698,0.208,-34.668,50.049,-47.668,0
-0.989,-0.631,0.141,-25.635,48.584,-10.376,0
-1.023,-0.616,0.132,-29.236,49.683,23.071,0
-0.978,-0.67,0.093,-36.682,46.753,58.167,0
-0.931,-0.73,0.057,-49.805,52.185,79.529,0
-0.925,-0.667,0.078,-65.247,65.674,100.22,0
-0.982,-0.635,0.127,-84.473,77.454,147.339,0
-1.034,-0.73,0.165,-106.14,77.454,208.008,0
-0.939,-0.823,0.16,-121.094,60.12,273.315,0
-0.83,-0.84,0.137,-123.047,39.246,340.576,0
-0.801,-0.876,0.13,-118.958,17.578,402.039,0
-0.689,-0.901,0.13,-108.704,-6.958,456.848,0
-0.474,-0.89,0.12,-90.332,-28.625,505.737,0
-0.273,-0.893,0.174,-69.031,-38.818,544.8,0
-0.028,-0.944,0.237,-41.138,-42.297,575.012,0
0.292,-0.993,0.273,-2.136,-42.786,594.971,0
0.474,-0.93,0.274,47.485,-35.767,602.112,0
0.653,-0.735,0.198,101.868,-21.484,599.67,0
0.708,-0.473,0.134,148.193,-2.075,591.98,0
0.787,-0.254,0.093,184.143,7.751,573.364,0
0.856,-0.053,0.083,212.402,-5.371,536.56,0
0.866,0.241,0.045,228.455,-32.166,478.455,0
0.892,0.454,0.03,225.037,-56.03,410.034,0
1.09,0.614,0.052,204.285,-77.087,345.459,0
1.185,0.761,0.125,164.062,-84.167,276.123,0
1.273,0.856,0.176,110.291,-80.322,206.97,0
1.358,0.847,0.171,45.776,-69.824,141.235,0
1.409,0.748,0.21,-20.874,-46.143,81.543,0
1.377,0.573,0.269,-75.989,-15.747,33.203,0
1.306,0.397,0.285,-112.244,12.085,-3.967,0
1.243,0.252,0.283,-127.319,36.865,-27.405,0
1.165,0.105,0.287,-128.113,54.626,-39.307,0
1.083,-0.031,0.279,-118.835,60.608,-44.128,0
1.022,-0.125,0.266,-98.755,57.495,-40.771,0
0.98,-0.202,0.247,-73.669,48.279,-30.945,0
0.939,-0.271,0.219,-47.607,34.607,-19.348,0
0.922,-0.306,0.196,-21.301,18.555,-7.263,0
0.935,-0.315,0.158,1.16,2.197,4.089,0
0.964,-0.311,0.133,16.724,-9.094,14.526,0
0.983,-0.319,0.117,24.353,-14.465,23.132,0
0.991,-0.33,0.135,26.428,-15.686,28.687,0
1,-0.333,0.129,25.818,-15.381,30.396,0
1.008,-0.334,0.122,22.705,-13,28.259,0
1.012,-0.323,0.113,17.334,-8.484,21.606,0
0.993,-0.318,0.116,10.864,-3.662,13.855,0
0.971,-0.339,0.127,4.822,-0.977,6.287,0
0.924,-0.372,0.13,-0.854,-3.113,-7.019,0
0.991,-0.314,0.095,-5.859,-8.911,-25.879,0
1,-0.233,0.08,-1.038,-0.671,-8.972,0
0.93,-0.367,0.109,-7.812,12.329,1.587,0
0.915,-0.352,0.091,-12.39,11.353,-8.362,0
0.944,-0.293,0.074,-7.935,8.24,-9.46,0
0.924,-0.338,0.08,-8.85,9.705,-7.019,0
0.898,-0.25,0.084,-9.766,9.46,-3.235,0
0.876,-0.452,0.121,-13.733,1.16,-17.517,0
0.915,-0.149,0.097,1.221,-4.272,-12.512,0
0.903,-0.372,0.099,-0.793,-6.287,3.357,0
0.855,-0.202,0.12,1.831,-8.423,5.554,0
0.941,-0.364,0.138,1.404,-14.099,10.681,0
0.886,-0.409,0.149,-2.319,-20.813,-11.414,0
0.884,-0.123,0.132,5.066,-20.813,-13.489,0
0.923,-0.293,0.127,0.671,-15.259,13.489,0
0.806,-0.328,0.186,-7.69,-7.141,7.996,0
0.902,-0.3,0.143,-7.69,-8.972,-7.202,0
0.91,-0.349,0.159,-2.808,0.244,-14.648,0
0.803,-0.307,0.175,-6.958,5.249,-33.63,0
0.797,-0.296,0.159,-5.859,0.61,-35.034,0
0.812,-0.253,0.133,-4.15,-3.052,-24.231,0
0.779,-0.303,0.15,-5.493,-1.526,-8.362,0
0.782,-0.358,0.159,-7.385,-3.418,-4.822,0
0.79,-0.3,0.153,-1.343,-7.08,0.671,0
0.789,-0.319,0.163,1.282,-6.958,9.094,0
1.508,0.937,-0.061,-89.844,-80.811,30.762,0
1.634,0.916,0.005,-92.346,-87.463,13.794,0
1.796,0.892,0.106,-94.421,-89.6,-6.348,0
1.871,0.935,0.193,-88.806,-76.965,-28.748,0
1.842,0.971,0.27,-81.726,-52.429,-56.152,0
1.784,0.993,0.327,-74.402,-25.696,-85.999,0
1.721,1.043,0.353,-63.721,-5.432,-116.028,0
1.652,1.103,0.389,-52.551,7.751,-145.081,0
1.584,1.156,0.421,-43.945,17.517,-170.532,0
1.51,1.176,0.435,-38.574,23.865,-194.031,0
1.443,1.167,0.432,-36.133,26.062,-217.285,0
1.39,1.143,0.41,-35.095,25.635,-239.441,0
1.334,1.114,0.367,-35.828,27.222,-261.108,0
1.261,1.081,0.345,-37.964,30.945,-281.799,0
1.193,1.057,0.35,-40.955,36.987,-301.636,0
1.148,1.03,0.374,-42.786,44.678,-319.885,0
1.074,0.984,0.397,-42.175,54.443,-338.501,0
0.982,0.949,0.418,-39.368,64.026,-355.103,0
0.88,0.906,0.415,-35.217,72.266,-366.089,0
0.778,0.849,0.397,-32.471,78.186,-371.643,0
0.698,0.777,0.387,-30.945,82.092,-371.643,0
0.632,0.675,0.373,-32.288,89.478,-373.596,0
0.577,0.557,0.351,-36.621,102.051,-389.465,0
0.555,0.517,0.319,-40.283,117.615,-413.574,0
0.466,0.511,0.28,-42.053,137.024,-428.284,0
0.345,0.464,0.26,-47.607,156.494,-436.707,0
0.246,0.403,0.251,-55.176,170.166,-441.223,0
0.131,0.331,0.252,-62.5,175.537,-440.186,0
0.047,0.276,0.253,-68.604,173.889,-434.631,0
0.098,0.271,0.201,-74.89,176.27,-417.114,0
0.355,0.182,0.164,-93.018,198.975,-401.611,0
-0.203,-0.07,0.224,-111.938,233.521,-401.672,0
-0.372,-0.113,0.26,-114.319,228.394,-434.326,0
-0.173,0.061,0.201,-100.647,194.885,-424.011,0
-0.133,-0.034,0.146,-107.422,200.867,-394.165,0
-0.753,-0.36,0.184,-123.779,211.304,-396.362,0
-0.428,-0.183,0.094,-113.708,169.006,-403.625,0
-0.562,-0.224,0.094,-103.027,143.799,-381.042,0
-0.57,-0.274,0.062,-114.99,128.235,-383.301,0
-0.642,-0.333,0.097,-115.723,122.192,-363.342,0
-0.629,-0.405,0.127,-115.906,109.741,-348.511,0
-0.656,-0.468,0.163,-111.023,97.961,-330.017,0
-0.657,-0.551,0.182,-101.868,85.876,-306.519,0
-0.707,-0.498,0.158,-86.487,77.332,-277.161,0
-0.715,-0.581,0.176,-75.5,73.914,-238.77,0
-0.71,-0.567,0.148,-66.956,75.012,-198.914,0
-0.677,-0.721,0.178,-65.674,83.13,-159.79,0
-0.774,-0.68,0.19,-60.12,93.018,-141.418,0
-0.967,-0.563,0.202,-50.415,97.046,-97.839,0
-1.029,-0.617,0.214,-49.194,81.116,-46.57,0
-0.968,-0.678,0.115,-44.189,50.72,2.258,0
-0.933,-0.838,0.095,-44.8,33.63,29.724,0
-0.964,-0.869,0.12,-48.279,14.893,3.174,0
-0.893,-0.781,0.106,-35.461,-2.747,-1.282,0
-0.782,-0.806,0.038,-30.64,-6.165,12.878,0
-0.659,-0.787,0.004,-29.846,10.376,33.142,0
-0.716,-0.772,0.044,-35.645,40.405,54.993,0
-0.851,-0.801,0.077,-46.387,60.852,77.454,0
-0.854,-0.761,0.064,-54.993,69.824,107.666,0
-0.819,-0.733,0.035,-65.735,83.191,151.55,0
-0.909,-0.71,0.05,-83.435,92.957,204.529,0
-0.994,-0.772,0.077,-102.783,74.951,261.597,0
-0.95,-0.804,0.044,-111.938,40.1,321.411,0
-0.859,-0.755,-0.017,-114.258,3.418,378.845,0
-0.677,-0.7,-0.067,-117.554,-31.982,433.838,0
-0.462,-0.695,-0.025,-120.239,-56.702,479.614,0
-0.305,-0.77,0.087,-119.141,-69.824,516.602,0
-0.056,-0.912,0.258,-106.567,-74.829,551.392,0
0.251,-1.036,0.368,-78.247,-70.679,577.698,0
0.54,-1.081,0.425,-33.875,-52.734,586.487,0
0.711,-1.046,0.417,22.278,-24.719,579.895,0
0.743,-0.802,0.338,86.06,5.493,569.153,0
0.694,-0.417,0.274,145.935,32.41,554.993,0
0.643,-0.06,0.213,188.538,46.082,533.997,0
0.67,0.322,0.192,210.937,39.795,506.287,0
0.712,0.541,0.098,213.318,8.118,471.68,0
0.976,0.692,0.023,201.05,-46.814,420.349,0
1.115,0.853,0.125,172.668,-90.759,350.342,0
1.295,0.855,0.228,124.023,-109.68,272.217,0
1.481,0.775,0.253,62.805,-99.915,189.697,0
1.398,0.739,0.321,4.333,-67.017,107.605,0
1.395,0.635,0.348,-42.236,-39.49,41.931,0
1.337,0.521,0.361,-77.332,-15.015,-5.188,0
1.262,0.413,0.373,-98.938,11.719,-33.325,0
1.209,0.267,0.391,-107.788,33.691,-42.969,0
1.129,0.118,0.388,-105.835,45.593,-40.405,0
1.073,-0.005,0.375,-94.238,47.668,-30.884,0
1.07,-0.115,0.345,-76.05,42.358,-17.7,0
1.036,-0.216,0.321,-55.908,34.668,-7.996,0
1.007,-0.266,0.308,-31.982,24.292,-2.686,0
1.003,-0.245,0.284,-6.958,9.155,3.357,0
1.032,-0.227,0.244,12.512,-4.883,13.55,0
1.044,-0.219,0.226,23.926,-13.428,21.545,0
1.058,-0.175,0.205,28.931,-19.043,25.696,0
1.053,-0.178,0.203,25.513,-19.287,25.574,0
1.047,-0.234,0.22,18.127,-16.785,20.081,0
1.034,-0.247,0.235,12.817,-15.747,7.446,0
1.02,-0.17,0.245,6.042,-15.259,-5.249,0
1.022,-0.175,0.244,-7.874,-14.221,-8.362,0
0.95,-0.332,0.267,-24.536,-13.611,-17.639,0
1.138,-0.3,0.243,-28.992,-12.817,-41.138,0
0.924,-0.19,0.264,-7.019,4.944,-4.639,0
0.983,-0.491,0.236,-25.146,8.789,-24.902,0
1.002,-0.143,0.201,-13.367,9.033,-30.579,0
0.973,-0.284,0.203,-5.554,18.799,2.38,0
0.983,-0.382,0.188,-20.081,25.696,-21.79,0
0.944,-0.22,0.181,-9.155,28.259,-22.156,0
0.783,-0.233,0.203,-7.69,27.039,-8.362,0
0.847,-0.284,0.175,-11.23,10.681,1.648,0
0.863,-0.385,0.185,-12.329,-4.028,-4.883,0
0.878,-0.241,0.159,-5.31,-11.719,-14.038,0
0.904,-0.295,0.178,0.732,-8.24,-1.587,0
0.868,-0.388,0.196,-5.005,-4.456,-15.686,0
0.885,-0.265,0.224,0,-5.249,-33.264,0
0.824,-0.233,0.216,1.587,-4.028,-33.264,0
0.827,-0.205,0.215,-5.127,-5.554,-27.588,0
0.823,-0.277,0.199,-6.042,-6.836,-8.301,0
0.824,-0.313,0.204,-5.005,-1.465,-9.521,0
0.797,-0.185,0.219,0.793,0.854,-6.897,0
1.331,0.864,0.396,-87.952,-52.185,-0.549,0
1.307,0.833,0.39,-75.073,-58.899,-33.386,0
1.303,0.863,0.271,-59.57,-72.083,-58.716,0
1.268,0.95,0.406,-42.786,-73.181,-77.82,0
1.399,0.984,0.32,-32.471,-64.453,-94.604,0
1.354,1.037,0.314,-27.161,-55.115,-118.469,0
1.32,1.098,0.356,-20.813,-39.856,-139.832,0
1.252,1.116,0.435,-19.287,-23.987,-158.325,0
1.188,1.085,0.485,-19.653,-14.038,-170.105,0
1.159,1.054,0.524,-16.541,-10.62,-178.772,0
1.188,1.072,0.529,-9.583,-11.658,-187.683,0
1.217,1.098,0.526,-6.104,-8.972,-197.632,0
1.209,1.095,0.536,-7.202,1.526,-210.571,0
1.18,1.083,0.55,-7.69,14.954,-226.135,0
1.148,1.064,0.547,-8.85,27.527,-244.019,0
1.102,1.026,0.532,-10.437,40.344,-262.329,0
1.044,0.981,0.516,-11.719,52.49,-280.64,0
1.018,0.922,0.5,-9.888,62.5,-298.096,0
0.973,0.88,0.492,-5.127,71.777,-311.951,0
0.922,0.841,0.489,0.305,80.994,-324.036,0
0.866,0.827,0.487,4.517,88.562,-333.679,0
0.789,0.809,0.466,7.812,93.75,-336.853,0
0.724,0.745,0.431,8.301,94.543,-337.28,0
0.674,0.656,0.396,9.521,92.59,-334.351,0
0.645,0.57,0.367,10.681,91.553,-333.801,0
0.592,0.503,0.347,10.071,94.299,-337.463,0
0.574,0.418,0.346,8.118,100.708,-341.064,0
0.546,0.358,0.314,5.005,111.755,-346.375,0
0.48,0.319,0.274,1.221,123.962,-352.051,0
0.384,0.318,0.245,-2.075,133.118,-356.079,0
0.351,0.303,0.185,-2.808,137.329,-343.262,0
0.509,0.337,0.111,-9.705,145.996,-322.571,0
0.069,0.085,0.089,-30.334,162.903,-320.74,0
-0.022,0.024,0.151,-50.232,158.691,-360.168,0
0.13,-0.187,0.155,-76.843,109.741,-436.768,0
0.245,0.061,0.016,-42.114,112.61,-408.691,0
0.148,0,0.028,-29.236,151.978,-343.689,0
-0.061,-0.208,0.103,-44.8,173.401,-340.271,0
-0.113,-0.309,0.099,-61.89,160.4,-377.563,0
-0.002,-0.234,0.013,-62.744,144.592,-399.231,0
-0.021,-0.159,-0.083,-58.289,158.569,-384.827,0
-0.267,-0.202,-0.106,-72.937,182.922,-379.15,0
-0.389,-0.262,-0.09,-91.125,183.35,-379.028,0
-0.417,-0.305,-0.078,-99.121,167.053,-364.319,0
-0.462,-0.376,-0.075,-111.755,149.658,-356.873,0
-0.448,-0.466,-0.065,-120.178,131.958,-347.29,0
-0.613,-0.505,-0.035,-126.099,123.718,-344.116,0
-0.574,-0.592,0.025,-124.146,122.192,-323.669,0
-0.702,-0.614,0.084,-119.751,125.793,-293.579,0
-0.639,-0.739,0.15,-111.877,129.822,-246.826,0
-0.754,-0.838,0.18,-106.75,132.263,-223.877,0
-0.949,-0.837,0.211,-85.571,122.559,-180.664,0
-0.915,-0.804,0.169,-62.622,96.252,-116.577,0
-0.858,-0.861,0.099,-60.974,73.425,-75.5,0
-0.844,-0.907,0.059,-69.885,59.265,-73.12,0
-0.946,-0.876,0.05,-62.683,43.64,-53.101,0
-0.909,-0.918,0.053,-51.27,15.991,-22.278,0
-0.835,-0.954,0.024,-41.809,-13.245,-7.385,0
-0.818,-0.862,-0.015,-32.898,-32.654,6.775,0
-0.745,-0.847,-0.001,-32.043,-37.292,29.175,0
-0.7,-0.848,-0.017,-41.626,-28.87,43.213,0
-0.679,-0.834,-0.016,-54.016,-7.874,66.04,0
-0.711,-0.88,0.013,-68.848,17.395,93.262,0
-0.829,-0.926,0.032,-80.994,35.706,119.141,0
-0.847,-0.955,0.019,-87.769,41.382,158.447,0
-0.772,-0.945,-0.029,-98.633,46.204,201.477,0
-0.8,-0.92,-0.026,-114.807,57.434,244.568,0
-0.826,-0.939,-0.033,-129.578,60.364,289.429,0
-0.736,-0.934,-0.02,-136.719,47.119,339.172,0
-0.635,-0.948,0.045,-140.32,27.405,391.968,0
-0.48,-1.013,0.153,-138.367,8.789,440.247,0
-0.181,-1.12,0.275,-125.305,-7.568,481.934,0
0.126,-1.2,0.319,-94.36,-14.587,518.066,0
0.402,-1.163,0.342,-47.546,-0.427,540.833,0
0.58,-1.031,0.351,1.709,30.579,549.622,0
0.622,-0.852,0.368,47.791,69.519,553.223,0
0.642,-0.732,0.323,90.027,88.074,537.842,0
0.619,-0.487,0.178,132.812,79.895,497.437,0
0.663,-0.05,0.087,165.71,60.181,448.242,0
0.657,0.245,0.064,173.096,35.034,399.109,0
0.794,0.403,0.051,157.104,-2.014,349.121,0
0.987,0.494,0.128,128.845,-36.926,296.997,0
1.044,0.541,0.257,92.041,-53.772,240.479,0
1.128,0.538,0.31,51.941,-57.007,184.204,0
1.224,0.547,0.298,14.221,-49.988,133.362,0
1.25,0.503,0.297,-23.315,-30.884,90.454,0
1.225,0.388,0.334,-58.533,-5.066,56.885,0
1.161,0.285,0.352,-80.933,17.456,31.25,0
1.08,0.204,0.334,-88.501,28.259,11.536,0
1.048,0.123,0.32,-86.121,27.527,-1.404,0
1.028,0.054,0.303,-75.867,22.156,-6.958,0
1.004,-0.005,0.3,-59.509,16.235,-6.531,0
0.97,-0.058,0.301,-39.001,9.583,0.732,0
0.965,-0.115,0.303,-18.86,1.099,11.597,0
0.956,-0.161,0.31,-0.305,-6.836,20.813,0
0.953,-0.179,0.306,15.991,-15.381,26.917,0
0.957,-0.183,0.297,26.611,-21.851,29.236,0
0.984,-0.17,0.272,31.616,-23.193,30.212,0
0.967,-0.17,0.272,30.762,-19.958,29.663,0
0.951,-0.192,0.27,24.841,-17.639,23.987,0
0.948,-0.201,0.248,20.691,-15.93,18.066,0
0.952,-0.187,0.214,16.541,-11.902,11.597,0
0.942,-0.206,0.208,9.277,-5.859,5.493,0
0.941,-0.249,0.209,1.099,-0.305,-0.183,0
0.953,-0.274,0.195,-4.395,5.005,-4.395,0
0.946,-0.287,0.188,-8.362,11.353,-7.263,0
0.915,-0.313,0.195,-11.902,17.212,-10.376,0
0.892,-0.336,0.196,-13.062,19.531,-11.658,0
0.868,-0.346,0.188,-10.681,17.639,-9.277,0
0.831,-0.36,0.18,-6.531,12.024,-5.737,0
0.826,-0.415,0.181,-1.892,3.845,-2.258,0
0.802,-0.409,0.179,2.93,-3.723,-2.258,0
0.901,-0.313,0.153,9.033,-7.874,-1.892,0
0.847,-0.203,0.138,17.883,-6.287,16.968,0
0.794,-0.304,0.184,12.39,-5.249,30.029,0
0.922,-0.428,0.17,-3.845,-11.047,-6.897,0
0.834,-0.146,0.171,8.484,-8.728,-8.911,0
0.888,-0.209,0.179,7.446,-2.93,14.771,0
0.822,-0.346,0.195,-6.592,2.441,8.423,0
1.15,0.794,0.579,-29.297,-90.393,-135.559,0
1.108,0.81,0.622,-22.827,-79.773,-155.396,0
1.048,0.821,0.63,-16.907,-69.885,-171.814,0
1.022,0.814,0.6,-13.123,-61.829,-187.988,0
1.01,0.819,0.588,-10.681,-51.208,-203.43,0
0.981,0.816,0.605,-10.376,-36.438,-218.018,0
0.912,0.799,0.655,-13.245,-20.752,-232.483,0
0.851,0.774,0.713,-15.991,-6.592,-245.728,0
0.822,0.749,0.744,-15.93,3.845,-257.751,0
0.813,0.722,0.749,-12.939,10.986,-268.921,0
0.836,0.688,0.767,-9.399,18.433,-279.175,0
0.864,0.651,0.799,-3.906,32.349,-289.856,0
0.871,0.611,0.818,3.052,52.124,-304.016,0
0.863,0.619,0.827,12.085,75.073,-318.909,0
0.838,0.623,0.828,20.996,99.976,-334.595,0
0.791,0.628,0.793,28.381,125.122,-348.877,0
0.728,0.615,0.762,33.569,148.01,-360.596,0
0.68,0.598,0.731,36.316,169.922,-370.789,0
0.618,0.555,0.668,35.706,191.101,-376.099,0
0.518,0.514,0.586,35.828,207.031,-370.483,0
0.392,0.476,0.516,35.461,216.37,-366.821,0
0.297,0.496,0.414,30.457,221.802,-354.858,0
0.197,0.275,0.377,20.081,220.703,-323.608,0
0.148,0.053,0.427,-8.911,218.689,-389.343,0
0.34,-0.083,0.394,-18.799,202.881,-439.758,0
0.454,0.012,0.347,-5.676,211.365,-444.336,0
0.271,0.009,0.331,2.258,246.155,-436.218,0
0.231,-0.06,0.274,-5.92,280.151,-448.853,0
0.081,-0.055,0.207,-10.925,313.599,-453.186,0
-0.233,-0.042,0.134,-25.757,335.632,-461.975,0
-0.392,-0.089,0.06,-45.837,331.299,-465.271,0
-0.573,-0.153,0.002,-67.749,305.054,-467.59,0
-0.508,-0.253,-0.021,-83.984,274.231,-460.876,0
-0.604,-0.304,-0.001,-95.886,257.385,-452.209,0
-0.733,-0.276,0.017,-108.643,247.803,-448.486,0
-0.788,-0.347,0.054,-115.662,229.858,-424.133,0
-0.75,-0.435,0.065,-120.667,210.693,-397.339,0
-0.706,-0.538,0.08,-123.474,195.374,-372.803,0
-0.812,-0.537,0.102,-121.399,188.477,-352.478,0
-0.889,-0.585,0.176,-116.394,177.124,-314.026,0
-0.974,-0.671,0.219,-111.694,157.593,-268.616,0
-0.954,-0.807,0.257,-105.469,136.23,-228.149,0
-1.047,-0.853,0.268,-89.294,112,-190.491,0
-1.078,-0.851,0.246,-65.308,82.947,-143.677,0
-1.024,-0.848,0.207,-46.021,54.504,-105.225,0
-1.037,-0.791,0.143,-33.02,29.114,-73.242,0
-0.945,-0.798,0.114,-26.794,9.888,-41.748,0
-0.927,-0.828,0.104,-26.001,-1.16,-22.705,0
-0.901,-0.882,0.105,-21.729,-10.254,0.671,0
-0.817,-0.868,0.067,-15.442,-15.808,18.066,0
-0.823,-0.773,0.019,-13.672,-6.226,31.799,0
-0.8,-0.764,-0.001,-22.827,12.085,50.049,0
-0.797,-0.784,-0.018,-37.17,31.555,65.002,0
-0.822,-0.759,-0.046,-50.598,50.049,73.853,0
-0.853,-0.708,0.006,-65.552,66.467,92.773,0
-0.911,-0.773,0.109,-86.304,76.965,125.183,0
-0.933,-0.872,0.168,-103.394,80.444,169.373,0
-0.826,-0.943,0.157,-108.154,80.139,228.088,0
-0.774,-0.991,0.163,-107.117,76.294,295.227,0
-0.787,-0.956,0.139,-100.769,68.176,363.708,0
-0.696,-0.845,0.07,-93.079,55.969,425.781,0
-0.553,-0.799,0.041,-89.6,38.452,481.018,0
-0.352,-0.863,0.027,-83.313,18.982,524.292,0
-0.141,-0.863,0.094,-65.491,7.568,561.096,0
0.021,-0.941,0.246,-40.71,4.944,591.492,0
0.125,-1.003,0.333,-6.042,5.981,604.126,0
0.384,-0.91,0.295,43.823,6.897,605.652,0
0.573,-0.669,0.287,97.778,17.944,603.149,0
0.662,-0.439,0.217,142.212,31.372,595.52,0
0.823,-0.26,0.185,179.138,35.706,574.28,0
0.852,0.05,0.133,210.266,32.166,529.053,0
0.837,0.443,0.086,225.525,22.766,471.863,0
0.807,0.618,0.098,217.468,0.122,410.339,0
1.057,0.783,0.076,196.289,-41.199,349.731,0
1.31,0.976,0.076,158.264,-73.242,284.607,0
1.354,0.922,0.165,97.473,-75.012,213.196,0
1.459,0.877,0.18,28.87,-62.805,133.667,0
1.396,0.789,0.232,-25.269,-35.217,80.078,0
1.339,0.648,0.247,-77.637,-10.437,27.039,0
1.228,0.498,0.27,-113.22,9.338,-14.587,0
1.203,0.335,0.289,-128.052,25.085,-40.405,0
1.167,0.185,0.295,-124.817,38.452,-47.485,0
1.065,0.009,0.32,-113.525,45.776,-46.021,0
1.013,-0.079,0.304,-92.041,41.565,-41.687,0
0.969,-0.106,0.288,-61.462,31.738,-23.804,0
0.943,-0.219,0.292,-35.522,17.09,-5.859,0
0.947,-0.242,0.241,-10.498,-2.747,2.686,0
0.952,-0.176,0.224,16.479,-13.794,18.25,0
0.922,-0.182,0.224,28.503,-21.423,29.297,0
0.98,-0.243,0.218,28.87,-32.654,26.794,0
1.077,-0.18,0.192,28.259,-34.485,19.836,0
1.021,-0.174,0.198,21.606,-24.048,17.517,0
1.019,-0.203,0.188,11.475,-12.878,18.25,0
1.014,-0.224,0.193,2.075,-2.93,15.076,0
0.978,-0.24,0.19,-7.629,4.333,5.92,0
0.973,-0.264,0.193,-15.381,10.254,-3.845,0
0.98,-0.282,0.196,-19.531,13.733,-10.62,0
0.947,-0.318,0.198,-23.315,13.55,-19.836,0
0.94,-0.283,0.188,-21.301,11.78,-22.522,0
0.953,-0.291,0.172,-16.296,9.949,-11.902,0
0.94,-0.313,0.167,-13.123,9.766,-3.784,0
0.93,-0.306,0.161,-9.338,8.423,-1.648,0
0.934,-0.289,0.15,-5.798,5.31,-1.221,0
0.928,-0.271,0.146,-3.174,2.38,0.427,0
0.927,-0.268,0.153,-1.587,0.244,2.808,0
0.931,-0.255,0.155,-0.427,-2.258,4.089,0
0.93,-0.265,0.155,-0.366,-3.784,3.479,0
0.923,-0.223,0.163,-0.305,-3.845,4.272,0
0.936,-0.278,0.171,-4.15,-4.333,0.916,0
0.896,-0.243,0.177,-4.578,-4.944,-1.343,0
0.968,-0.243,0.156,-5.676,-4.639,-2.686,0
0.911,-0.216,0.167,-4.333,0.122,2.502,0
0.867,-0.303,0.194,-10.132,1.648,-0.366,0
0.941,-0.272,0.168,-13,-2.625,-12.085,0
0.903,-0.246,0.171,-6.592,2.686,-5.249,0
0.9,-0.285,0.184,-9.949,8.179,-5.92,0
0.87,-0.297,0.18,-8.789,6.897,-7.141,0
0.861,-0.275,0.174,-5.798,4.456,-8.545,0
0.835,-0.277,0.164,-2.808,1.343,-4.272,0
1.258,0.869,0.599,7.324,-147.583,14.282,0
1.212,0.804,0.66,16.602,-137.573,-3.906,0
1.252,0.833,0.672,26.917,-126.282,-21.118,0
1.194,0.857,0.664,38.879,-106.14,-39.795,0
1.13,0.877,0.669,47.852,-83.862,-56.702,0
1.059,0.875,0.665,53.406,-63.721,-72.693,0
1.006,0.884,0.676,56.396,-47.546,-87.036,0
0.981,0.852,0.706,52.124,-34.058,-100.586,0
0.987,0.813,0.733,45.105,-21.24,-114.319,0
0.999,0.786,0.771,38.147,-6.531,-127.319,0
1.006,0.781,0.804,35.217,12.268,-140.869,0
1.004,0.797,0.839,32.593,33.203,-157.715,0
1.004,0.807,0.866,27.832,53.711,-176.392,0
0.955,0.825,0.876,21.179,72.693,-195.068,0
0.927,0.79,0.853,13.123,88.013,-211.426,0
0.906,0.752,0.817,5.371,101.501,-224.182,0
0.864,0.729,0.792,-0.183,114.624,-234.07,0
0.843,0.71,0.769,-4.333,124.146,-242.981,0
0.869,0.648,0.762,-8.484,129.15,-250.977,0
0.881,0.598,0.766,-11.475,135.498,-259.766,0
0.849,0.593,0.776,-10.437,146.24,-269.897,0
0.831,0.585,0.772,-8.118,157.471,-278.748,0
0.805,0.587,0.752,-6.836,165.955,-286.56,0
0.78,0.551,0.732,-7.507,172.729,-292.114,0
0.769,0.518,0.695,-8.667,178.894,-295.227,0
0.729,0.489,0.649,-10.925,186.523,-294.312,0
0.694,0.438,0.608,-14.954,195.496,-290.1,0
0.657,0.405,0.554,-19.043,201.904,-285.4,0
0.623,0.323,0.506,-23.254,205.444,-280.457,0
0.594,0.243,0.459,-29.724,209.045,-288.391,0
0.542,0.232,0.433,-35.706,214.05,-299.5,0
0.49,0.154,0.421,-41.87,216.431,-304.871,0
0.446,0.103,0.386,-48.706,215.576,-313.171,0
0.432,0.103,0.348,-51.514,210.571,-311.523,0
0.426,-0.139,0.34,-60.364,200.134,-319.824,0
0.476,-0.156,0.258,-59.143,198.425,-347.9,0
0.411,-0.081,0.209,-38.025,214.783,-337.219,0
0.281,-0.133,0.168,-39.673,227.173,-336.609,0
0.229,-0.184,0.124,-50.354,228.271,-342.529,0
0.156,-0.216,0.066,-58.594,226.929,-343.262,0
0.028,-0.283,0.036,-71.045,225.159,-347.534,0
0.06,-0.322,-0.01,-82.703,218.994,-356.079,0
0.09,-0.303,-0.038,-82.092,225.098,-341.675,0
-0.103,-0.328,-0.013,-93.689,241.394,-333.008,0
-0.142,-0.393,0.029,-106.873,244.324,-334.351,0
-0.204,-0.425,0.052,-110.596,235.352,-330.383,0
-0.208,-0.474,0.035,-112.976,226.746,-324.585,0
-0.246,-0.524,0.015,-114.99,223.511,-320.312,0
-0.381,-0.553,0.005,-114.38,218.445,-313.049,0
-0.422,-0.601,-0.01,-108.826,206.787,-294.189,0
-0.402,-0.644,-0.012,-103.821,192.078,-276.306,0
-0.403,-0.659,-0.013,-98.022,179.077,-259.521,0
-0.421,-0.703,-0.004,-93.14,169.617,-243.347,0
-0.479,-0.734,0,-87.402,160.461,-230.225,0
-0.477,-0.794,0.001,-77.759,148.01,-210.999,0
-0.556,-0.812,-0.011,-65.796,133.728,-194.641,0
-0.618,-0.787,-0.028,-49.5,115.234,-172.607,0
-0.714,-0.779,-0.025,-38.086,93.75,-147.217,0
-0.731,-0.809,-0.051,-32.043,70.313,-117.676,0
-0.704,-0.838,-0.098,-30.212,46.753,-94.055,0
-0.68,-0.815,-0.126,-36.133,28.687,-91.492,0
-0.721,-0.818,-0.132,-44.8,14.16,-91.492,0
-0.713,-0.823,-0.116,-52.124,-0.732,-85.388,0
-0.696,-0.811,-0.085,-58.167,-9.705,-71.899,0
-0.689,-0.825,-0.043,-66.162,-12.634,-57.007,0
-0.672,-0.864,0.012,-72.266,-14.404,-46.692,0
-0.657,-0.906,0.052,-73.608,-15.198,-41.931,0
-0.65,-0.918,0.085,-69.458,-11.047,-34.668,0
-0.655,-0.905,0.097,-64.27,-0.305,-22.095,0
-0.721,-0.869,0.073,-61.768,17.639,-3.113,0
-0.78,-0.783,0.058,-66.406,36.865,26.978,0
-0.88,-0.714,0.045,-81.848,48.34,71.228,0
-0.944,-0.74,0.067,-106.506,42.786,127.258,0
-0.954,-0.782,0.071,-128.54,19.714,192.627,0
-0.853,-0.801,-0.003,-143.555,-11.963,260.254,0
-0.646,-0.779,-0.1,-154.602,-37.292,328.552,0
-0.502,-0.78,-0.095,-164.795,-44.006,392.883,0
-0.316,-0.859,-0.055,-171.509,-41.138,446.472,0
-0.109,-0.944,0.042,-171.387,-31.555,490.356,0
0.117,-1.098,0.174,-162.354,-10.132,524.536,0
0.349,-1.309,0.32,-137.024,19.592,548.889,0
0.568,-1.427,0.406,-90.942,51.697,561.096,0
0.659,-1.396,0.436,-27.222,81.482,557.922,0
0.636,-1.175,0.362,47.302,104.37,545.898,0
0.646,-0.805,0.22,116.638,120.728,529.053,0
0.565,-0.469,0.108,165.039,119.019,503.601,0
0.451,-0.191,0.072,195.496,84.045,465.637,0
0.531,0.123,0.071,215.027,21.667,419.495,0
0.646,0.41,0.125,215.088,-37.476,369.08,0
0.793,0.511,0.205,186.035,-84.839,317.261,0
0.961,0.477,0.243,139.648,-121.094,263.184,0
1.078,0.423,0.259,93.262,-137.878,210.51,0
1.196,0.41,0.276,51.453,-131.226,164.429,0
1.268,0.34,0.292,11.108,-104.431,127.136,0
1.281,0.267,0.326,-21.973,-66.284,95.764,0
1.216,0.198,0.358,-46.936,-24.414,67.078,0
1.119,0.121,0.374,-62.561,9.888,41.321,0
1.02,0.068,0.341,-67.81,28.931,20.081,0
0.957,0.035,0.317,-64.514,34.485,6.775,0
0.927,-0.022,0.308,-56.641,30.945,0.61,0
0.936,-0.077,0.293,-43.213,21.057,0.549,0
0.939,-0.112,0.29,-26.611,10.803,6.897,0
0.959,-0.153,0.284,-12.512,3.174,15.259,0
0.964,-0.199,0.277,-1.282,-2.502,20.386,0
0.978,-0.205,0.262,9.399,-6.531,22.644,0
0.999,-0.199,0.24,18.494,-8.301,24.963,0
0.997,-0.191,0.206,23.987,-8.423,26.733,0
1.002,-0.17,0.179,25.452,-7.324,27.893,0
1.003,-0.183,0.17,21.301,-4.7,27.527,0
1.003,-0.219,0.167,14.343,-1.892,25.085,0
0.996,-0.241,0.167,8.789,1.099,19.897,0
0.977,-0.255,0.166,4.761,2.502,13.184,0
0.969,-0.281,0.17,1.16,2.136,6.348,0
0.967,-0.302,0.172,-0.854,0.061,-0.916,0
0.958,-0.29,0.17,-1.221,-0.793,-7.141,0
0.934,-0.284,0.17,-1.404,0.61,-11.047,0
0.907,-0.265,0.158,-1.099,1.709,-12.512,0
0.898,-0.243,0.153,-1.465,3.662,-11.169,0
0.892,-0.248,0.148,-4.761,5.92,-8.606,0
1.548,0.623,0.461,-116.028,27.649,-129.883,0
1.415,0.689,0.452,-89.111,46.631,-167.725,0
1.29,0.827,0.386,-61.523,50.903,-199.28,0
1.243,0.943,0.297,-40.649,42.969,-224.06,0
1.259,0.991,0.248,-32.654,33.325,-242.31,0
1.301,0.992,0.238,-33.813,33.997,-259.094,0
1.304,0.95,0.231,-40.039,47.363,-276.367,0
1.224,0.92,0.231,-47.241,66.04,-291.687,0
1.173,0.903,0.238,-49.988,78.979,-305.176,0
1.139,0.883,0.25,-50.171,85.266,-313.843,0
1.087,0.812,0.245,-50.293,88.379,-318.115,0
1.016,0.766,0.224,-48.035,90.759,-321.96,0
0.967,0.735,0.199,-43.03,91.614,-324.158,0
0.928,0.675,0.183,-40.039,90.515,-324.402,0
0.875,0.665,0.183,-37.781,91.858,-321.411,0
0.83,0.589,0.179,-36.499,97.961,-314.697,0
0.766,0.509,0.173,-38.757,107.727,-316.65,0
0.686,0.451,0.153,-43.213,117.798,-331.177,0
0.585,0.422,0.143,-47.485,125.916,-351.99,0
0.498,0.409,0.115,-50.293,129.333,-361.206,0
0.411,0.328,0.08,-57.312,131.531,-364.441,0
0.281,0.264,0.056,-64.209,134.033,-363.831,0
0.195,0.27,0.036,-67.139,131.348,-347.534,0
0.299,0.175,0.001,-77.332,131.775,-321.167,0
0.172,0.013,0.009,-98.511,144.104,-317.444,0
-0.156,-0.18,0.07,-109.253,141.785,-336.792,0
0.095,-0.138,0.098,-102.051,109.436,-348.022,0
0.24,-0.156,0.065,-95.093,103.76,-329.529,0
-0.067,-0.349,0.079,-99.915,130.432,-329.59,0
0.006,-0.298,0.067,-92.957,137.817,-338.379,0
-0.247,-0.317,0.051,-82.031,131.714,-332.642,0
-0.233,-0.338,0.002,-80.078,114.319,-332.825,0
-0.282,-0.369,-0.031,-78.247,100.647,-324.707,0
-0.344,-0.41,-0.042,-79.59,90.21,-314.331,0
-0.376,-0.446,-0.027,-79.773,81.848,-301.758,0
-0.376,-0.51,0.009,-81.909,75.134,-290.71,0
-0.351,-0.597,0.042,-80.933,72.388,-280.884,0
-0.393,-0.566,0.048,-74.768,73.364,-274.658,0
-0.4,-0.648,0.057,-66.956,73.669,-261.902,0
-0.599,-0.555,0.02,-59.326,71.655,-254.883,0
-0.525,-0.661,0.001,-52.246,62.378,-227.112,0
-0.569,-0.662,-0.039,-54.81,58.289,-235.596,0
-0.699,-0.508,-0.065,-50.171,62.927,-226.746,0
-0.834,-0.516,-0.002,-57.617,71.96,-199.585,0
-0.923,-0.616,0.065,-72.083,66.711,-172.546,0
-0.926,-0.731,0.091,-78.979,58.289,-146.24,0
-0.921,-0.794,0.081,-81.726,57.8,-132.08,0
-0.95,-0.801,0.087,-83.74,61.89,-133.911,0
-0.99,-0.788,0.127,-81.299,66.895,-127.686,0
-1.071,-0.817,0.176,-76.965,74.768,-103.088,0
-1.087,-0.858,0.162,-69.397,82.397,-65.735,0
-1.08,-0.785,0.105,-58.167,94.421,-20.325,0
-1.144,-0.705,0.123,-56.641,112.183,26.794,0
-1.361,-0.722,0.122,-68.97,118.164,77.148,0
-1.38,-0.695,0.099,-80.994,101.868,141.235,0
-1.326,-0.683,0.019,-92.651,71.533,220.947,0
-1.261,-0.719,-0.009,-108.521,35.583,307.617,0
-1.204,-0.752,0.002,-119.873,2.014,399.17,0
-1.023,-0.748,0.001,-119.812,-34.363,488.586,0
-0.758,-0.802,-0.005,-115.967,-67.932,563.049,0
-0.477,-0.925,0.024,-106.201,-89.661,619.08,0
-0.115,-1.026,0.149,-83.74,-94.116,658.63,0
0.205,-1.139,0.274,-46.814,-77.82,683.044,0
0.443,-1.145,0.293,5.981,-44.983,686.462,0
0.629,-0.96,0.192,69.824,-5.981,675.781,0
0.684,-0.545,0.194,129.944,40.894,663.269,0
0.684,-0.252,0.157,171.265,80.872,643.982,0
0.767,-0.004,0.144,204.712,90.698,608.398,0
0.785,0.363,0.046,229.614,73.059,551.331,0
0.788,0.837,-0.048,230.835,43.274,477.539,0
0.811,0.761,0.006,203.857,13.428,399.109,0
1.012,0.765,0.115,164.001,-34.058,312.073,0
1.135,0.78,0.178,110.779,-76.538,229.858,0
1.262,0.718,0.206,52.429,-90.759,160.95,0
1.331,0.562,0.234,2.502,-85.083,101.563,0
1.285,0.472,0.24,-31.25,-70.74,50.049,0
1.248,0.445,0.222,-55.115,-50.11,12.939,0
1.249,0.404,0.215,-74.646,-23.743,-4.395,0
1.133,0.198,0.246,-87.036,6.226,-5.615,0
1.012,-0.215,0.278,-100.342,11.292,-40.466,0
1.296,-0.119,0.131,-121.094,-6.226,-157.593,0
1.071,0.329,0.2,-38.696,42.419,-28.32,0
0.901,-0.24,0.237,-25.574,58.411,65.674,0
0.926,-0.379,0.201,-29.968,32.471,40.71,0
0.994,-0.279,0.138,-1.465,7.08,25.513,0
0.989,-0.197,0.124,16.785,-3.845,23.315,0
1.018,-0.207,0.091,19.348,-10.864,26.428,0
1.03,-0.23,0.1,18.921,-13.794,28.687,0
1.019,-0.194,0.102,18.616,-14.404,27.344,0
1.021,-0.216,0.111,11.23,-14.648,20.935,0
1.017,-0.21,0.1,3.845,-15.991,12.512,0
1.082,-0.186,0.09,-1.526,-14.587,4.089,0
1.041,-0.247,0.102,-7.324,-6.348,4.517,0
1.07,-0.266,0.088,-16.968,2.747,-5.676,0
1.022,-0.243,0.094,-17.334,11.536,-5.615,0
1.039,-0.275,0.088,-20.386,19.409,-6.348,0
0.953,-0.243,0.097,-20.508,24.902,-5.005,0
0.953,-0.262,0.098,-19.897,21.057,0.183,0
0.959,-0.3,0.091,-18.555,12.39,1.343,0
0.959,-0.27,0.085,-14.038,6.226,-2.747,0
0.953,-0.274,0.085,-8.423,2.747,-2.441,0
0.956,-0.321,0.09,-5.554,-1.587,-3.357,0
0.933,-0.331,0.091,-3.113,-6.226,-4.211,0
0.99,-0.261,0.075,-5.066,-11.475,-24.719,0
1.003,-0.123,0.081,2.991,-8.728,-11.78,0
0.983,-0.231,0.088,-5.615,-2.502,3.54,0
0.911,-0.224,0.119,-12.329,0.366,7.935,0
0.947,-0.356,0.129,-12.939,-4.089,8.789,0
0.939,-0.285,0.122,-13.794,-4.7,-7.935,0
0.946,-0.245,0.126,-12.329,-3.54,-12.39,0
0.921,-0.282,0.138,-10.193,-3.113,-5.249,0
0.904,-0.263,0.149,-8.423,-3.052,-3.235,0
0.913,-0.233,0.148,-2.625,-3.357,6.348,0
0.905,-0.32,0.145,-2.808,-1.831,9.033,0
0.91,-0.296,0.142,-3.357,-0.916,-1.404,0
0.902,-0.256,0.118,0.122,1.587,-2.075,0
0.89,-0.275,0.116,-2.38,6.836,-1.892,0
0.868,-0.28,0.109,-3.235,8.545,-2.319,0
0.854,-0.275,0.104,-1.831,6.836,-2.319,0
