aX,aY,aZ,gX,gY,gZ,ts
1.466,0.925,-0.656,-25.574,-113.77,-14.221,0
1.641,0.996,-0.701,-32.898,-138.123,-28.625,0
1.79,1.018,-0.645,-43.091,-159.363,-46.753,0
1.918,1.037,-0.588,-53.223,-173.462,-64.758,0
2.005,1.044,-0.523,-60.12,-180.176,-82.458,0
2.055,0.97,-0.434,-68.481,-180.786,-104.858,0
2.006,0.886,-0.348,-68.359,-178.223,-128.967,0
1.949,0.838,-0.294,-60.242,-179.321,-152.405,0
1.9,0.783,-0.228,-49.133,-187.866,-174.072,0
1.852,0.714,-0.151,-35.889,-200.012,-189.453,0
1.817,0.696,-0.057,-19.287,-210.144,-199.951,0
1.804,0.687,0.017,-2.869,-216.492,-205.811,0
1.801,0.673,0.052,13.55,-218.567,-212.769,0
1.797,0.675,0.075,29.846,-213.074,-224.365,0
1.754,0.684,0.094,45.227,-195.557,-239.685,0
1.673,0.699,0.131,57.312,-167.358,-254.456,0
1.518,0.72,0.148,66.101,-136.78,-267.029,0
1.381,0.718,0.192,70.19,-111.877,-278.87,0
1.27,0.747,0.209,73.486,-93.811,-288.452,0
1.094,0.742,0.225,75.989,-81.604,-292.664,0
0.912,0.656,0.253,75.073,-77.332,-297.119,0
0.777,0.591,0.264,76.05,-79.834,-303.467,0
0.69,0.567,0.273,79.468,-84.961,-312.988,0
0.589,0.546,0.251,84.595,-88.074,-319.397,0
0.504,0.533,0.235,87.708,-87.769,-324.585,0
0.439,0.475,0.225,87.585,-85.449,-327.82,0
0.331,0.401,0.204,87.28,-81.055,-327.881,0
0.227,0.272,0.205,87.952,-75.989,-321.228,0
0.151,0.149,0.203,93.872,-73.364,-317.017,0
0.13,-0.002,0.187,105.591,-76.172,-321.167,0
0.126,0.194,0.114,126.709,-63.599,-303.467,0
-0.052,0.119,0.078,129.395,-44.006,-265.991,0
-0.087,-0.008,0.055,115.784,-33.447,-257.568,0
-0.135,-0.041,0.037,109.863,-26.489,-246.338,0
-0.163,-0.098,0.03,102.722,-17.7,-233.643,0
-0.248,-0.217,0.026,93.933,-7.996,-218.689,0
-0.285,-0.311,0.031,89.294,-2.38,-197.937,0
-0.292,-0.38,0.027,92.957,-3.601,-173.035,0
-0.288,-0.454,0.017,99.487,-11.78,-151.001,0
-0.275,-0.493,-0.024,109.924,-22.461,-131.287,0
-0.231,-0.511,-0.076,121.826,-33.081,-108.398,0
-0.222,-0.51,-0.125,130.859,-41.016,-87.219,0
-0.175,-0.506,-0.167,135.925,-48.767,-70.129,0
-0.088,-0.52,-0.233,137.207,-60.059,-63.11,0
0.057,-0.412,-0.349,132.202,-66.162,-67.505,0
0.01,-0.388,-0.679,108.704,-57.678,-62.744,0
-0.158,-0.375,-0.898,59.631,-33.264,-40.588,0
-0.079,-0.526,-0.828,8.118,-13.916,-22.644,0
0.011,-0.757,-0.674,-24.719,-13.672,-13.367,0
-0.055,-0.775,-0.603,-30.457,-14.648,-24.414,0
-0.039,-0.769,-0.602,-28.442,-27.344,-21.423,0
0.068,-0.832,-0.579,-31.128,-45.288,-9.216,0
0.095,-0.732,-0.585,-34.546,-59.143,2.014,0
0.177,-0.638,-0.605,-42.419,-67.993,14.16,0
0.184,-0.631,-0.597,-66.284,-67.932,26.855,0
0.252,-0.609,-0.578,-96.68,-60.547,39.429,0
0.289,-0.649,-0.483,-128.113,-45.227,43.457,0
0.24,-0.71,-0.375,-152.222,-27.893,44.006,0
0.205,-0.725,-0.31,-162.17,-19.348,44.189,0
0.178,-0.708,-0.259,-163.757,-20.081,50.537,0
0.168,-0.651,-0.205,-163.452,-25.146,60.73,0
0.18,-0.627,-0.159,-164.429,-33.63,69.763,0
0.215,-0.575,-0.135,-164.978,-43.762,70.74,0
0.254,-0.45,-0.114,-166.26,-52.063,70.862,0
0.266,-0.349,-0.076,-175.72,-56.641,73.792,0
0.259,-0.304,-0.022,-193.298,-59.753,78.308,0
0.249,-0.292,0.043,-211.182,-64.758,81.482,0
0.243,-0.292,0.102,-224.243,-73.975,81.604,0
0.242,-0.281,0.165,-230.835,-84.412,81.909,0
0.241,-0.317,0.257,-233.521,-90.027,82.275,0
0.277,-0.344,0.332,-229.614,-91.064,83.923,0
0.308,-0.381,0.379,-218.75,-87.28,88.623,0
0.362,-0.373,0.39,-202.637,-76.721,94.788,0
0.352,-0.254,0.375,-183.228,-62.927,99.365,0
0.346,-0.126,0.362,-170.776,-53.467,101.013,0
0.356,-0.033,0.357,-168.03,-52.551,100.281,0
0.374,0.055,0.414,-171.814,-57.068,96.741,0
0.374,0.15,0.531,-178.894,-63.293,92.651,0
0.41,0.17,0.695,-187.5,-72.327,90.637,0
0.479,0.141,0.884,-192.566,-81.665,91.003,0
0.552,0.196,1.051,-185.73,-87.952,93.567,0
0.682,0.234,1.177,-171.753,-91.614,96.313,0
0.883,0.322,1.324,-155.212,-91.003,94.421,0
0.989,0.566,1.485,-138.245,-75.5,86.426,0
1.037,0.653,1.64,-132.08,-51.575,72.632,0
1.175,0.661,1.786,-131.775,-29.297,48.523,0
0.924,0.838,1.926,-135.437,-7.446,34.119,0
0.874,0.506,2.03,-138.977,-13.367,11.658,0
0.964,0.669,2.073,-114.929,-22.339,4.517,0
0.865,0.281,2.034,-109.436,-29.236,18.799,0
0.859,0.262,1.955,-82.031,-41.565,22.034,0
0.887,0.159,1.804,-49.683,-46.448,25.208,0
0.854,0.15,1.653,-16.602,-38.269,23.987,0
0.806,0.15,1.499,7.507,-21.179,17.029,0
0.709,0.176,1.373,21.79,-3.052,8.728,0
0.688,0.106,1.242,26.917,10.559,1.709,0
0.63,0.118,1.147,25.208,28.076,-10.498,0
0.57,0.048,1.075,18.433,39.673,-16.541,0
0.517,0.01,1.028,14.404,47.974,-20.203,0
0.481,-0.052,0.991,11.719,49.622,-19.653,0
0.457,-0.109,0.945,14.099,42.358,-16.602,0
0.467,-0.105,0.901,20.752,28.442,-11.658,0
0.492,-0.08,0.853,25.757,15.625,-5.188,0
0.567,-0.085,0.82,27.588,8.362,2.258,0
0.466,-0.01,0.747,27.771,2.075,2.014,0
0.573,-0.089,0.757,25.757,2.686,10.132,0
0.548,-0.068,0.721,21.301,3.601,5.981,0
0.538,-0.032,0.698,25.452,1.709,1.099,0
0.568,-0.026,0.703,24.658,4.272,-1.343,0
0.497,0.003,0.706,17.761,9.399,-5.005,0
0.459,0.005,0.722,10.193,11.353,-4.822,0
0.431,-0.069,0.752,1.282,8.667,-3.845,0
0.43,-0.065,0.764,0.244,2.686,-2.075,0
0.413,-0.104,0.767,2.197,-3.784,1.465,0
0.422,-0.084,0.769,6.653,-11.292,2.502,0
0.434,-0.062,0.762,10.132,-17.822,5.493,0
0.467,-0.057,0.75,10.071,-20.203,8.179,0
0.484,-0.049,0.747,8.972,-18.921,9.521,0
0.498,-0.045,0.754,6.897,-14.343,8.972,0
1.688,0.698,-0.294,-15.137,-122.742,-45.532,0
1.807,0.637,-0.298,-24.414,-132.141,-62.317,0
1.729,0.648,-0.217,-37.781,-137.451,-72.693,0
1.792,0.741,-0.12,-32.715,-140.747,-85.876,0
1.904,0.578,-0.073,-37.537,-148.56,-114.685,0
1.891,0.473,-0.036,-42.603,-158.508,-131.775,0
1.893,0.422,0.004,-37.415,-166.321,-142.7,0
1.839,0.389,0.052,-31.616,-168.762,-154.846,0
1.764,0.345,0.092,-24.902,-166.809,-168.823,0
1.705,0.325,0.12,-14.648,-160.95,-182.861,0
1.639,0.325,0.156,-2.014,-149.658,-195.19,0
1.537,0.329,0.196,10.62,-135.742,-207.092,0
1.483,0.365,0.251,21.729,-121.338,-219.055,0
1.436,0.408,0.313,28.87,-106.323,-230.774,0
1.365,0.416,0.374,29.602,-89.539,-243.347,0
1.286,0.415,0.426,26.245,-71.777,-257.324,0
1.171,0.402,0.45,22.644,-53.406,-270.325,0
1.037,0.352,0.47,19.287,-36.499,-280.762,0
0.947,0.29,0.498,20.142,-23.254,-287.415,0
0.867,0.242,0.505,28.931,-15.869,-291.26,0
0.789,0.227,0.499,42.603,-12.146,-293.823,0
0.696,0.218,0.478,57.495,-9.094,-294.373,0
0.594,0.184,0.469,67.566,-7.263,-293.945,0
0.497,0.154,0.447,74.097,-6.714,-293.518,0
0.435,0.128,0.422,78.186,-9.399,-292.786,0
0.392,0.061,0.409,80.566,-16.357,-291.504,0
0.428,0.065,0.374,86.609,-22.522,-287.109,0
0.381,0.07,0.329,93.201,-19.958,-267.273,0
0.278,-0.064,0.299,93.14,-15.686,-249.146,0
0.224,-0.133,0.274,98.877,-15.259,-238.831,0
0.168,-0.156,0.244,109.558,-17.639,-232.849,0
0.131,-0.173,0.204,118.286,-21.729,-225.769,0
0.079,-0.2,0.149,124.756,-29.419,-213.928,0
0.056,-0.227,0.096,126.709,-37.72,-201.721,0
0.075,-0.228,0.03,123.779,-42.297,-190.125,0
0.077,-0.243,-0.031,114.746,-41.687,-177.856,0
0.057,-0.286,-0.074,102.783,-35.583,-165.466,0
0.023,-0.35,-0.098,91.797,-27.344,-151.428,0
-0.013,-0.457,-0.101,84.839,-18.86,-137.878,0
-0.04,-0.516,-0.103,84.778,-12.146,-127.197,0
-0.054,-0.535,-0.129,89.844,-8.911,-116.638,0
-0.126,-0.57,-0.193,93.994,-9.521,-103.455,0
-0.047,-0.636,-0.225,98.206,-9.277,-85.327,0
-0.064,-0.65,-0.291,103.333,-14.526,-70.679,0
-0.017,-0.613,-0.329,109.985,-18.005,-59.021,0
0.039,-0.565,-0.639,101.563,-21.118,-47.424,0
-0.147,-0.405,-1.047,64.941,-10.681,-24.78,0
-0.079,-0.657,-1.019,10.559,5.066,-13.367,0
0.038,-0.892,-0.788,-30.823,-4.578,-16.113,0
0.042,-0.816,-0.672,-32.471,-10.925,-19.348,0
0.131,-0.818,-0.66,-36.621,-8.545,-17.273,0
0.085,-0.803,-0.613,-49.316,-7.69,-6.226,0
0.096,-0.841,-0.586,-57.739,-17.029,8.911,0
0.093,-0.787,-0.588,-66.101,-28.076,17.761,0
0.087,-0.724,-0.6,-81.177,-29.053,20.691,0
0.089,-0.734,-0.556,-103.455,-27.893,27.954,0
0.083,-0.742,-0.463,-123.779,-31.372,34.485,0
0.101,-0.757,-0.359,-138.55,-35.706,39.856,0
0.068,-0.758,-0.276,-146.24,-40.405,44.25,0
0.078,-0.721,-0.212,-149.353,-50.598,51.086,0
0.098,-0.659,-0.163,-150.33,-65.674,60.974,0
0.145,-0.594,-0.121,-153.442,-79.346,68.665,0
0.159,-0.547,-0.071,-161.499,-89.661,73.12,0
0.159,-0.507,-0.001,-171.57,-99.365,76.782,0
0.159,-0.478,0.104,-181.396,-107.91,79.834,0
0.191,-0.476,0.216,-188.049,-112.305,83.435,0
0.24,-0.484,0.29,-188.293,-111.755,88.318,0
0.279,-0.466,0.343,-180.847,-106.689,92.834,0
0.304,-0.413,0.383,-169.861,-100.83,96.68,0
0.279,-0.365,0.452,-160.583,-95.886,101.318,0
0.333,-0.316,0.524,-153.564,-92.651,107.3,0
0.342,-0.307,0.57,-149.353,-93.018,112.61,0
0.411,-0.261,0.609,-144.592,-98.694,116.15,0
0.507,-0.209,0.676,-140.015,-106.506,113.647,0
0.641,-0.14,0.763,-137.451,-112,104.187,0
0.75,-0.079,0.858,-137.756,-108.154,90.149,0
0.831,-0.044,0.993,-142.334,-94.055,74.219,0
0.871,-0.032,1.143,-148.437,-70.557,58.289,0
0.88,-0.089,1.291,-152.649,-44.8,45.044,0
0.903,-0.129,1.408,-147.583,-22.888,36.743,0
0.913,-0.142,1.463,-133.24,-5.737,32.043,0
0.893,-0.126,1.49,-114.258,5.981,28.198,0
0.87,-0.097,1.5,-95.459,11.841,25.635,0
0.846,-0.102,1.489,-80.139,11.169,23.865,0
0.86,-0.132,1.456,-68.176,5.737,22.583,0
0.86,-0.14,1.401,-57.129,-0.122,20.813,0
0.871,-0.187,1.337,-47.668,-3.601,18.433,0
0.93,-0.266,1.255,-38.635,-3.967,16.418,0
0.825,-0.177,1.148,-29.968,-2.869,5.31,0
0.826,-0.202,1.125,-20.813,8.667,7.69,0
0.663,-0.25,1.032,-25.818,13.367,4.272,0
0.718,-0.388,1.029,-19.47,25.146,-1.038,0
0.626,-0.307,0.967,-10.559,20.02,-10.925,0
0.607,-0.257,0.892,-7.446,20.02,-9.338,0
0.584,-0.346,0.864,-11.719,22.705,-2.258,0
0.534,-0.416,0.86,-9.827,15.32,-4.517,0
0.558,-0.341,0.82,0.977,4.822,-6.409,0
0.589,-0.379,0.791,4.944,0.977,-3.357,0
0.603,-0.396,0.768,7.507,-0.427,-3.174,0
0.575,-0.314,0.741,11.536,0.427,-4.089,0
0.574,-0.29,0.723,10.132,2.075,0.671,0
0.568,-0.301,0.718,4.761,4.272,4.944,0
0.537,-0.317,0.709,1.77,6.531,5.493,0
0.524,-0.312,0.711,2.075,5.31,1.343,0
0.515,-0.28,0.712,3.418,2.014,-2.014,0
0.517,-0.275,0.702,1.282,-1.16,-2.075,0
0.532,-0.307,0.71,-2.136,-4.272,-1.282,0
0.54,-0.321,0.721,-2.991,-6.165,-2.441,0
0.557,-0.318,0.725,-1.526,-6.226,-3.113,0
0.549,-0.325,0.719,0.549,-5.432,-2.686,0
0.526,-0.272,0.722,2.625,-4.272,-2.563,0
0.537,-0.301,0.718,2.93,-3.479,-0.061,0
0.535,-0.26,0.71,2.136,-3.235,1.526,0
0.499,-0.27,0.711,-0.427,-3.479,3.601,0
0.509,-0.271,0.723,-1.831,-7.935,2.869,0
0.526,-0.247,0.712,-2.686,-12.451,1.892,0
0.54,-0.266,0.709,-5.615,-12.024,2.197,0
0.537,-0.268,0.729,-8.362,-11.78,1.526,0
0.564,-0.301,0.729,-8.911,-10.376,1.77,0
1.154,0.856,-0.53,-2.93,40.71,36.987,0
1.167,0.846,-0.561,-11.475,28.748,34.485,0
1.201,0.857,-0.601,-14.282,8.667,27.344,0
1.234,0.852,-0.637,-15.808,-17.883,14.893,0
1.259,0.844,-0.657,-15.32,-49.683,-2.686,0
1.291,0.828,-0.649,-12.817,-85.083,-23.865,0
1.324,0.814,-0.613,-10.315,-121.216,-47.119,0
1.37,0.807,-0.575,-7.446,-155.029,-69.702,0
1.42,0.752,-0.532,-5.554,-183.289,-89.233,0
1.513,0.712,-0.453,-0.488,-203.247,-105.469,0
1.54,0.708,-0.387,7.751,-218.079,-122.131,0
1.55,0.695,-0.293,13.672,-229.919,-141.052,0
1.581,0.687,-0.203,18.311,-237.244,-161.682,0
1.598,0.663,-0.09,20.996,-239.685,-183.899,0
1.595,0.622,0.007,22.217,-236.145,-207.642,0
1.564,0.564,0.111,24.109,-230.347,-231.506,0
1.516,0.514,0.202,29.541,-221.497,-254.272,0
1.476,0.487,0.254,39.917,-206.482,-275.452,0
1.421,0.488,0.257,53.772,-186.096,-293.03,0
1.305,0.474,0.266,65.674,-164.551,-305.603,0
1.154,0.479,0.297,73.914,-142.09,-311.218,0
1.006,0.461,0.339,78.491,-118.469,-311.768,0
0.887,0.398,0.364,78.43,-100.159,-311.584,0
0.824,0.325,0.381,78.247,-90.515,-312.073,0
0.785,0.288,0.385,82.092,-81.421,-314.026,0
0.711,0.257,0.387,87.83,-66.406,-318.115,0
0.626,0.248,0.399,93.384,-43.945,-320.312,0
0.53,0.242,0.386,97.412,-22.461,-317.139,0
0.417,0.197,0.351,97.351,-10.559,-314.941,0
0.327,0.14,0.305,96.985,-5.92,-312.439,0
0.263,0.092,0.248,98.267,-3.54,-306.58,0
0.154,0.016,0.223,99.67,-2.258,-295.898,0
0.059,-0.055,0.22,103.333,-3.723,-283.691,0
0.007,-0.128,0.209,110.229,-6.958,-269.226,0
-0.047,-0.192,0.19,119.446,-10.01,-252.991,0
-0.068,-0.225,0.144,130.554,-16.174,-233.948,0
-0.065,-0.281,0.058,141.052,-26.489,-213.257,0
-0.057,-0.331,-0.032,148.315,-36.56,-192.139,0
-0.044,-0.351,-0.13,153.198,-41.748,-173.645,0
-0.047,-0.382,-0.213,153.381,-41.748,-157.593,0
-0.049,-0.405,-0.293,151.794,-37.842,-142.883,0
-0.069,-0.433,-0.348,149.658,-36.438,-130.432,0
-0.018,-0.447,-0.414,146.912,-37.72,-119.507,0
0.017,-0.446,-0.502,140.076,-40.955,-112.854,0
0.174,-0.383,-0.74,121.582,-36.316,-105.225,0
-0.357,-0.314,-1.307,73.853,-22.156,-77.026,0
-0.296,-0.447,-1.301,17.334,-14.038,-50.537,0
0.067,-0.705,-0.944,-26.55,1.282,-29.541,0
-0.046,-0.783,-0.773,-35.461,17.761,-31.86,0
0.03,-0.701,-0.695,-30.029,18.127,-34.363,0
0.162,-0.689,-0.699,-35.217,9.949,-28.87,0
0.233,-0.677,-0.736,-49.194,-1.648,-25.757,0
0.317,-0.654,-0.743,-69.702,-7.751,-20.752,0
0.302,-0.693,-0.682,-97.168,-5.92,-12.634,0
0.328,-0.731,-0.597,-121.155,-2.625,-0.61,0
0.386,-0.743,-0.502,-139.832,2.197,7.263,0
0.362,-0.75,-0.392,-154.846,8.911,11.414,0
0.344,-0.797,-0.286,-165.161,12.268,17.029,0
0.292,-0.816,-0.212,-166.931,5.554,21.118,0
0.294,-0.794,-0.163,-161.682,-9.033,24.963,0
0.296,-0.744,-0.116,-156.189,-27.466,26.611,0
0.292,-0.663,-0.073,-154.358,-45.227,25.513,0
0.284,-0.585,-0.018,-157.715,-61.89,23.926,0
0.314,-0.559,0.069,-165.771,-77.393,23.621,0
0.359,-0.555,0.177,-173.767,-85.449,24.536,0
0.366,-0.571,0.232,-177.551,-85.022,26.428,0
0.383,-0.566,0.247,-174.866,-83.13,29.236,0
0.366,-0.536,0.254,-168.701,-80.688,31.616,0
0.364,-0.455,0.268,-164.429,-77.332,32.898,0
0.282,-0.411,0.292,-166.138,-74.707,33.752,0
0.266,-0.381,0.325,-170.593,-78.064,33.63,0
0.254,-0.323,0.372,-174.133,-84.412,31.738,0
0.253,-0.298,0.427,-178.528,-88.684,30.09,0
0.306,-0.299,0.494,-182.556,-91.248,28.748,0
0.354,-0.283,0.588,-182.556,-88.379,29.114,0
0.403,-0.266,0.66,-178.833,-80.444,32.104,0
0.401,-0.254,0.757,-173.523,-70.251,36.621,0
0.431,-0.269,0.852,-166.138,-59.753,41.382,0
0.49,-0.224,0.928,-153.748,-52.49,48.462,0
0.53,-0.139,1.005,-139.221,-49.561,55.054,0
0.598,-0.047,1.097,-127.747,-52.368,59.57,0
0.675,0.03,1.199,-119.812,-58.838,61.646,0
0.729,0.088,1.271,-116.15,-63.293,60.059,0
0.761,0.108,1.341,-116.699,-65.613,54.688,0
0.783,0.083,1.414,-116.76,-65.063,47.363,0
0.855,-0.035,1.485,-111.45,-60.364,41.931,0
0.845,-0.065,1.49,-96.313,-54.688,31.86,0
0.864,0.001,1.478,-75.562,-37.659,28.687,0
0.769,-0.073,1.437,-64.819,-23.01,27.466,0
0.791,-0.093,1.406,-49.927,-12.329,19.47,0
0.77,-0.172,1.374,-37.537,-8.362,15.869,0
0.642,0.023,1.247,-26.062,-1.343,3.113,0
0.729,-0.153,1.245,-22.888,19.165,6.47,0
0.494,-0.19,1.204,-28.381,16.296,-4.211,0
0.59,-0.206,1.155,-21.362,4.578,-5.493,0
0.524,-0.193,1.048,-21.851,-1.587,-3.113,0
0.535,-0.278,1.027,-23.926,6.775,3.784,0
0.487,-0.417,1.025,-21.606,3.723,4.517,0
0.497,-0.295,0.966,-5.188,-0.427,0,0
0.528,-0.326,0.904,4.089,1.465,2.502,0
0.5,-0.286,0.86,8.606,6.042,3.662,0
0.491,-0.342,0.85,10.437,6.775,2.808,0
0.484,-0.249,0.797,14.709,0.366,-1.221,0
0.473,-0.21,0.766,14.587,5.92,3.418,0
0.514,-0.334,0.772,5.92,5.798,3.906,0
0.489,-0.282,0.765,8.484,1.892,-2.075,0
0.508,-0.22,0.753,9.521,0.916,-3.113,0
0.52,-0.304,0.749,2.991,7.568,-1.404,0
0.474,-0.29,0.759,1.587,12.146,-3.479,0
0.484,-0.253,0.749,2.075,12.39,-2.441,0
0.48,-0.279,0.737,-0.549,15.259,-0.305,0
0.433,-0.298,0.754,-0.732,16.846,-0.427,0
0.428,-0.282,0.759,3.845,11.536,-1.221,0
0.454,-0.266,0.743,7.019,4.883,-0.244,0
0.448,-0.266,0.749,6.836,0.671,1.16,0
0.458,-0.268,0.755,5.554,-5.249,1.526,0
0.473,-0.257,0.758,4.15,-9.521,1.831,0
0.479,-0.256,0.763,2.014,-10.01,2.686,0
0.478,-0.258,0.768,-0.854,-10.315,3.662,0
1.263,1.004,-0.509,-30.701,-5.554,49.805,0
1.369,1.061,-0.476,-59.57,-2.563,69.885,0
1.471,1.087,-0.45,-85.51,-4.089,83.13,0
1.623,1.047,-0.516,-101.257,-11.414,84.778,0
1.634,1.02,-0.526,-113.342,-19.409,71.655,0
1.584,0.963,-0.541,-122.62,-24.841,46.448,0
1.533,0.837,-0.49,-123.352,-48.767,13.672,0
1.464,0.773,-0.398,-109.375,-91.797,-23.743,0
1.503,0.728,-0.331,-86.792,-144.165,-58.899,0
1.563,0.679,-0.284,-56.519,-195.74,-85.083,0
1.591,0.645,-0.23,-20.813,-241.455,-101.807,0
1.671,0.643,-0.112,10.376,-268.494,-120.239,0
1.712,0.701,-0.015,37.476,-277.466,-134.399,0
1.761,0.737,0.084,52.795,-268.311,-152.71,0
1.781,0.764,0.146,60.486,-237.854,-174.194,0
1.693,0.78,0.194,63.721,-194.519,-200.378,0
1.563,0.844,0.256,62.744,-150.146,-228.394,0
1.413,0.813,0.29,56.03,-115.295,-256.531,0
1.244,0.738,0.311,48.523,-88.501,-282.776,0
1.08,0.697,0.332,45.166,-69.397,-305.603,0
0.932,0.651,0.354,45.959,-56.824,-322.876,0
0.819,0.542,0.413,50.598,-51.025,-333.313,0
0.745,0.468,0.465,62.805,-50.842,-338.745,0
0.664,0.429,0.478,80.2,-54.016,-339.905,0
0.58,0.379,0.458,97.9,-58.35,-336.365,0
0.537,0.377,0.395,114.38,-64.148,-330.933,0
0.473,0.348,0.339,126.465,-68.115,-319.519,0
0.402,0.284,0.289,128.174,-66.162,-315.247,0
0.328,0.286,0.269,130.005,-60.364,-303.772,0
0.289,0.161,0.275,126.099,-55.542,-293.823,0
0.282,0.1,0.281,124.268,-49.377,-291.199,0
0.196,0.087,0.271,129.089,-41.565,-282.41,0
0.145,-0.145,0.282,132.446,-38.818,-277.039,0
0.185,-0.158,0.218,142.456,-43.03,-295.105,0
0.118,-0.063,0.159,159.729,-35.706,-274.719,0
0.032,-0.167,0.09,155.64,-38.452,-257.385,0
0.01,-0.17,0.045,152.222,-42.236,-240.723,0
0.046,-0.27,-0.004,144.226,-42.542,-220.154,0
0.022,-0.314,-0.075,136.414,-39.734,-202.393,0
0.008,-0.394,-0.118,131.348,-32.288,-182.312,0
0.007,-0.48,-0.163,128.296,-25.818,-168.396,0
-0.015,-0.465,-0.222,128.052,-20.813,-157.471,0
-0.054,-0.476,-0.278,124.146,-16.479,-144.775,0
-0.065,-0.511,-0.351,116.211,-17.517,-130.493,0
-0.065,-0.534,-0.429,106.384,-21.179,-116.577,0
0.021,-0.569,-0.511,94.238,-23.621,-104.004,0
-0.001,-0.519,-0.586,78.247,-19.897,-91.797,0
0.007,-0.578,-0.671,53.528,-15.869,-73.242,0
0.02,-0.649,-0.751,23.804,-8.85,-57.007,0
-0.022,-0.668,-0.754,-2.197,-2.625,-43.579,0
0.026,-0.715,-0.683,-21.118,7.263,-30.701,0
0.029,-0.711,-0.628,-36.316,13.489,-23.071,0
0.145,-0.787,-0.58,-47.729,16.907,-6.409,0
0.14,-0.79,-0.568,-57.617,21.24,-4.7,0
0.107,-0.755,-0.542,-64.453,19.348,3.601,0
0.121,-0.775,-0.494,-72.266,11.719,18.372,0
0.143,-0.759,-0.485,-80.261,-1.343,30.518,0
0.153,-0.734,-0.472,-91.614,-10.925,35.095,0
0.151,-0.707,-0.456,-106.323,-15.625,36.316,0
0.151,-0.738,-0.419,-121.704,-23.193,40.466,0
0.147,-0.741,-0.39,-134.949,-32.41,39.063,0
0.118,-0.685,-0.363,-145.081,-41.626,37.598,0
0.093,-0.65,-0.291,-157.166,-51.453,42.358,0
0.107,-0.667,-0.215,-170.532,-60.486,49.561,0
0.149,-0.698,-0.147,-178.894,-70.801,56.702,0
0.192,-0.708,-0.102,-179.138,-82.153,57.434,0
0.234,-0.594,-0.102,-174.438,-87.952,54.382,0
0.268,-0.517,-0.076,-174.255,-82.397,62.134,0
0.275,-0.49,-0.06,-180.786,-75.623,68.176,0
0.281,-0.38,-0.045,-186.646,-70.007,71.472,0
0.26,-0.307,-0.015,-195.923,-66.895,74.951,0
0.238,-0.279,0.086,-209.595,-67.2,75.623,0
0.234,-0.322,0.241,-220.642,-68.726,77.515,0
0.23,-0.36,0.382,-220.642,-71.655,83.374,0
0.282,-0.37,0.475,-207.275,-80.261,92.407,0
0.422,-0.342,0.548,-185.913,-90.515,102.173,0
0.472,-0.218,0.631,-161.865,-96.008,110.84,0
0.564,-0.085,0.727,-143.188,-97.839,114.807,0
0.671,0.018,0.827,-132.507,-96.802,114.502,0
0.801,0.189,0.957,-126.465,-92.773,108.765,0
0.883,0.347,1.129,-127.563,-85.693,95.459,0
0.976,0.364,1.293,-136.963,-78.491,78.674,0
1.039,0.327,1.43,-146.667,-70.313,60.547,0
1.059,0.228,1.571,-150.696,-60.669,41.504,0
1.072,0.129,1.634,-143.86,-47.974,24.841,0
1.049,0.067,1.634,-126.465,-31.86,19.165,0
0.981,-0.001,1.617,-105.103,-15.076,15.869,0
0.94,0.016,1.573,-79.895,-5.859,12.024,0
0.996,-0.005,1.519,-59.265,3.235,14.038,0
0.944,-0.091,1.476,-44.739,14.16,13.367,0
0.801,0.245,1.359,-32.166,17.639,1.587,0
0.844,-0.021,1.354,-34.058,20.935,16.418,0
0.678,0.003,1.25,-41.138,11.475,11.169,0
0.775,-0.193,1.233,-33.936,5.676,8.728,0
0.71,-0.154,1.133,-26.062,-11.292,1.953,0
0.727,-0.154,1.072,-18.311,-3.54,9.399,0
0.733,-0.337,1.025,-14.709,6.165,12.146,0
0.652,-0.176,0.976,-0.854,16.663,-4.211,0
0.658,-0.172,0.922,7.385,26.794,-6.47,0
0.592,-0.168,0.891,7.141,34.424,-10.498,0
0.575,-0.13,0.838,6.47,35.156,-12.207,0
0.545,-0.175,0.823,2.441,32.654,-10.681,0
0.515,-0.225,0.804,0.854,22.034,-12.085,0
0.533,-0.221,0.792,5.493,12.451,-15.503,0
0.539,-0.182,0.767,8.24,0.61,-13.245,0
0.592,-0.19,0.749,6.897,-3.967,-0.854,0
0.58,-0.251,0.739,3.784,-2.686,5.31,0
0.593,-0.21,0.733,7.385,0.183,3.296,0
0.58,-0.23,0.711,9.949,5.188,-0.427,0
0.579,-0.164,0.7,11.78,12.207,-3.296,0
0.533,-0.182,0.695,7.385,18.066,-3.845,0
0.499,-0.185,0.701,2.563,19.409,-4.944,0
0.469,-0.19,0.699,-1.282,15.137,-5.249,0
0.478,-0.193,0.704,-4.517,8.179,-4.211,0
0.481,-0.225,0.714,-7.507,1.099,-0.793,0
0.506,-0.251,0.729,-7.446,-4.517,2.869,0
0.531,-0.252,0.728,-3.54,-8.24,5.127,0
0.551,-0.234,0.725,1.343,-8.789,6.653,0
0.549,-0.24,0.723,4.089,-7.446,8.301,0
1.86,0.888,-0.087,119.08,-152.649,-35.645,0
1.892,0.885,-0.035,103.149,-156.494,-60.852,0
1.909,0.842,0.062,81.604,-151.917,-86.304,0
1.893,0.779,0.155,62.622,-145.569,-110.229,0
1.872,0.7,0.236,48.828,-139.954,-131.775,0
1.834,0.647,0.301,41.992,-134.46,-150.269,0
1.794,0.608,0.355,39.49,-128.479,-166.016,0
1.756,0.58,0.381,39.429,-120.422,-180.176,0
1.695,0.543,0.417,38.94,-110.168,-196.045,0
1.67,0.543,0.394,37.354,-96.558,-213.806,0
1.586,0.516,0.366,31.982,-82.886,-234.375,0
1.462,0.476,0.384,21.423,-70.19,-252.502,0
1.35,0.42,0.426,12.451,-54.993,-263.55,0
1.242,0.377,0.471,7.996,-38.879,-269.897,0
1.122,0.342,0.493,10.498,-24.231,-273.071,0
0.998,0.302,0.479,16.357,-14.282,-276.123,0
0.919,0.267,0.449,25.391,-7.874,-277.527,0
0.873,0.27,0.427,35.095,0.977,-276.794,0
0.789,0.248,0.413,41.626,13.306,-275.146,0
0.677,0.258,0.385,44.8,26.733,-274.109,0
0.612,0.227,0.354,45.715,37.72,-270.508,0
0.528,0.202,0.334,46.082,44.128,-270.325,0
0.416,0.124,0.322,47.18,47.241,-271.606,0
0.361,0.08,0.325,50.842,46.082,-270.63,0
0.329,0.028,0.294,56.458,40.039,-266.907,0
0.3,-0.03,0.257,61.035,32.104,-268.494,0
0.298,-0.022,0.22,67.017,29.419,-266.846,0
0.245,-0.042,0.202,69.397,31.311,-257.69,0
0.167,-0.098,0.179,67.81,30.823,-246.521,0
0.154,-0.157,0.16,67.932,24.109,-236.084,0
0.159,-0.197,0.128,70.068,16.418,-225.464,0
0.143,-0.235,0.08,73.181,11.719,-213.44,0
0.121,-0.29,0.031,75.989,8.789,-201.965,0
0.121,-0.339,0.016,79.895,4.7,-191.101,0
0.124,-0.344,-0.017,85.938,1.221,-180.176,0
0.125,-0.352,-0.069,88.928,-0.671,-169.189,0
0.112,-0.348,-0.119,88.013,-1.16,-156.86,0
0.069,-0.372,-0.149,82.703,-0.122,-142.456,0
0.015,-0.456,-0.169,75.562,-0.793,-128.54,0
0.039,-0.531,-0.198,72.205,-6.592,-118.042,0
0.113,-0.544,-0.268,74.524,-15.442,-109.375,0
0.032,-0.475,-0.333,75.989,-15.869,-98.755,0
0.052,-0.563,-0.357,69.519,-18.494,-80.078,0
0.065,-0.609,-0.384,64.697,-24.231,-66.528,0
0.102,-0.621,-0.457,61.157,-30.212,-56.763,0
0.106,-0.587,-0.593,50.537,-31.982,-49.255,0
0.062,-0.621,-0.736,28.137,-35.217,-36.987,0
0.034,-0.626,-0.718,5.371,-39.49,-28.015,0
0.095,-0.675,-0.66,-15.32,-41.077,-23.01,0
0.178,-0.77,-0.635,-33.264,-43.579,-16.357,0
0.192,-0.762,-0.638,-45.654,-46.936,-18.25,0
0.189,-0.743,-0.629,-58.044,-49.988,-12.634,0
0.232,-0.746,-0.598,-73.73,-51.208,-0.671,0
0.268,-0.764,-0.56,-90.393,-45.288,8.728,0
0.256,-0.763,-0.504,-105.225,-34.851,15.076,0
0.259,-0.774,-0.44,-118.225,-25.696,18.677,0
0.23,-0.76,-0.382,-130.554,-22.766,16.724,0
0.206,-0.738,-0.32,-141.235,-27.954,17.151,0
0.19,-0.705,-0.261,-151.001,-38.391,20.02,0
0.183,-0.671,-0.199,-160.034,-52.917,24.353,0
0.191,-0.65,-0.128,-168.823,-68.115,28.748,0
0.201,-0.619,-0.046,-175.903,-81.787,31.128,0
0.234,-0.614,0.036,-181.274,-92.651,31.982,0
0.268,-0.611,0.108,-183.35,-96.375,33.264,0
0.329,-0.579,0.14,-181.519,-91.98,35.095,0
0.349,-0.527,0.162,-178.711,-80.505,39.185,0
0.362,-0.479,0.193,-178.589,-68.054,42.297,0
0.338,-0.418,0.226,-182.068,-58.167,42.908,0
0.311,-0.312,0.293,-188.293,-53.467,44.25,0
0.286,-0.314,0.403,-199.951,-54.749,44.495,0
0.288,-0.384,0.537,-209.656,-59.021,44.617,0
0.338,-0.438,0.636,-206.055,-65.125,48.218,0
0.406,-0.406,0.724,-190.552,-70.984,52.734,0
0.478,-0.356,0.824,-171.814,-74.646,58.411,0
0.552,-0.297,0.925,-154.724,-74.646,63.904,0
0.612,-0.208,1.024,-141.357,-67.627,67.749,0
0.66,-0.129,1.096,-130.676,-59.448,68.604,0
0.708,-0.088,1.163,-122.803,-55.847,65.735,0
0.748,-0.019,1.226,-116.333,-52.979,59.326,0
0.744,0.016,1.289,-112.915,-48.828,49.622,0
0.75,-0.029,1.351,-112.793,-47.302,39.917,0
0.784,-0.069,1.388,-109.863,-46.265,31.311,0
0.789,-0.108,1.411,-102.783,-40.71,24.048,0
0.806,-0.167,1.413,-91.492,-31.738,19.348,0
0.798,-0.163,1.387,-75.012,-20.081,16.602,0
0.826,-0.201,1.337,-57.617,-8.118,13.489,0
0.804,-0.087,1.29,-41.748,9.155,9.46,0
0.764,-0.14,1.247,-38.452,26.123,9.155,0
0.728,-0.242,1.23,-34.851,32.349,3.906,0
0.619,-0.115,1.134,-25.513,18.555,-9.521,0
0.741,-0.091,1.064,-18.372,26.733,-3.052,0
0.544,-0.287,1.015,-33.325,26.428,-5.615,0
0.566,-0.315,1.041,-24.658,19.226,-12.146,0
0.579,-0.286,0.993,-15.442,-1.221,-14.099,0
0.624,-0.258,0.921,-13.489,0.916,-7.385,0
0.596,-0.357,0.897,-15.625,13.977,2.136,0
0.551,-0.367,0.883,-8.24,14.526,1.709,0
0.542,-0.311,0.85,4.028,13.977,-4.272,0
0.523,-0.281,0.802,10.193,13.184,-6.287,0
0.529,-0.272,0.772,11.597,15.564,-7.996,0
0.498,-0.28,0.763,8.118,13.794,-11.841,0
0.486,-0.259,0.756,5.432,8.728,-12.268,0
0.523,-0.313,0.748,1.038,5.493,-7.69,0
0.495,-0.307,0.743,-0.61,3.662,-5.615,0
0.506,-0.3,0.738,0.305,3.723,-2.502,0
0.505,-0.312,0.737,-0.366,4.395,-0.122,0
0.502,-0.304,0.729,0.854,5.493,1.77,0
0.5,-0.308,0.728,2.563,7.568,2.258,0
0.483,-0.281,0.718,5.371,8.972,1.038,0
0.491,-0.26,0.71,6.348,9.399,0.427,0
0.493,-0.255,0.716,4.028,10.193,0.427,0
0.485,-0.249,0.721,0.305,11.23,-0.061,0
0.47,-0.25,0.733,-3.479,9.399,-0.366,0
0.479,-0.275,0.735,-7.019,5.615,-0.122,0
0.493,-0.29,0.745,-7.935,2.014,0.732,0
0.501,-0.294,0.748,-6.531,0.244,1.892,0
0.513,-0.293,0.748,-4.333,0.549,2.869,0
0.51,-0.281,0.74,-1.892,1.892,3.357,0
0.507,-0.262,0.739,-0.183,3.418,3.296,0
1.661,0.919,-0.204,30.273,-105.225,-23.376,0
1.732,0.938,-0.183,25.269,-124.573,-42.847,0
1.818,0.909,-0.136,16.663,-142.7,-61.462,0
1.871,0.847,-0.074,8.057,-157.288,-78.735,0
1.891,0.769,0.004,3.845,-167.542,-95.154,0
1.946,0.714,0.046,7.996,-176.025,-111.633,0
1.969,0.709,0.092,19.47,-185.12,-130.371,0
2.003,0.724,0.129,30.579,-190.674,-152.405,0
1.959,0.726,0.199,36.743,-189.148,-176.392,0
1.879,0.672,0.285,37.292,-182.129,-198.669,0
1.823,0.609,0.375,37.598,-173.401,-216.675,0
1.8,0.551,0.412,42.725,-163.33,-229.004,0
1.697,0.51,0.401,50.842,-151.001,-238.77,0
1.576,0.501,0.397,58.716,-137.207,-247.986,0
1.47,0.49,0.399,65.063,-117.126,-257.141,0
1.319,0.491,0.412,69.946,-90.149,-266.357,0
1.144,0.493,0.412,75.623,-62.378,-274.841,0
0.985,0.478,0.42,81.299,-39.124,-280.884,0
0.865,0.435,0.429,87.341,-21.545,-284.607,0
0.773,0.429,0.437,95.154,-7.202,-284.912,0
0.649,0.408,0.432,101.99,3.967,-284.607,0
0.54,0.384,0.432,105.652,11.23,-286.682,0
0.441,0.322,0.403,109.619,14.16,-288.879,0
0.343,0.284,0.364,113.892,14.893,-291.87,0
0.271,0.255,0.345,117.981,12.512,-292.358,0
0.179,0.187,0.331,120.361,12.207,-289.368,0
0.12,0.129,0.294,123.474,12.634,-284.851,0
0.048,0.091,0.238,126.77,14.465,-278.564,0
-0.053,0.057,0.204,128.174,18.799,-266.602,0
-0.03,-0.126,0.21,129.272,18.005,-247.192,0
-0.054,-0.152,0.148,136.414,12.39,-242.065,0
-0.122,-0.178,0.094,147.583,23.621,-227.661,0
-0.12,-0.233,0.006,150.696,28.931,-221.375,0
-0.156,-0.138,-0.075,154.48,35.034,-203.857,0
-0.173,-0.221,-0.139,144.592,42.48,-176.147,0
-0.204,-0.301,-0.194,133.728,44.739,-153.809,0
-0.204,-0.4,-0.278,127.869,39.307,-139.526,0
-0.147,-0.367,-0.368,126.038,29.297,-129.883,0
-0.184,-0.373,-0.458,115.662,18.25,-117.126,0
-0.156,-0.427,-0.525,95.52,3.662,-106.445,0
-0.096,-0.514,-0.562,74.951,-12.512,-97.717,0
-0.005,-0.493,-0.63,57.068,-25.879,-90.942,0
-0.111,-0.513,-0.735,34.851,-31.677,-76.843,0
-0.092,-0.618,-0.703,5.127,-31.311,-57.434,0
-0.054,-0.741,-0.618,-12.695,-18.25,-37.048,0
-0.006,-0.762,-0.554,-14.954,-9.705,-26.917,0
0.074,-0.755,-0.521,-8.789,-13.672,-19.958,0
0.158,-0.727,-0.506,-9.399,-15.747,-12.939,0
0.218,-0.704,-0.54,-20.63,-12.39,-2.319,0
0.226,-0.727,-0.541,-40.71,-7.629,8.972,0
0.284,-0.777,-0.505,-61.157,-5.554,23.621,0
0.341,-0.795,-0.468,-77.454,-0.977,31.433,0
0.342,-0.776,-0.421,-90.576,4.15,30.701,0
0.337,-0.788,-0.362,-101.196,5.188,33.386,0
0.316,-0.789,-0.311,-109.07,1.526,35.034,0
0.295,-0.805,-0.261,-113.464,-7.507,38.818,0
0.279,-0.805,-0.223,-115.723,-22.888,39.551,0
0.278,-0.774,-0.194,-118.042,-42.053,36.011,0
0.278,-0.726,-0.167,-121.216,-62.988,34.058,0
0.273,-0.665,-0.132,-127.319,-82.397,34.058,0
0.269,-0.628,-0.096,-137.207,-99.731,36.682,0
0.273,-0.64,-0.036,-148.01,-116.089,38.208,0
0.297,-0.634,0.012,-156.555,-131.348,29.968,0
0.32,-0.539,0.019,-163.391,-135.62,19.958,0
0.319,-0.551,0.037,-174.5,-131.714,15.808,0
0.344,-0.517,0.072,-185.547,-125.122,6.775,0
0.329,-0.487,0.135,-194.397,-111.45,2.136,0
0.27,-0.485,0.197,-201.599,-91.858,0.732,0
0.272,-0.47,0.271,-204.102,-77.271,6.409,0
0.251,-0.451,0.309,-201.843,-66.04,16.357,0
0.25,-0.422,0.345,-196.838,-55.481,27.71,0
0.264,-0.378,0.376,-190.674,-47.241,38.94,0
0.261,-0.353,0.405,-185.425,-40.588,49.255,0
0.255,-0.292,0.473,-179.199,-37.476,58.777,0
0.243,-0.193,0.594,-173.523,-39.795,66.895,0
0.305,-0.183,0.742,-169.617,-50.049,74.707,0
0.411,-0.056,0.863,-162.781,-66.04,80.872,0
0.582,-0.103,0.976,-156.189,-78.247,87.524,0
0.649,0.059,1.041,-143.616,-84.351,76.965,0
0.775,0.227,1.198,-134.46,-79.041,78.552,0
0.869,0.124,1.339,-137.146,-74.28,79.346,0
0.989,0.203,1.449,-127.014,-64.026,61.34,0
1.005,0.245,1.508,-116.333,-52.856,52.063,0
1.003,0.187,1.577,-106.812,-30.334,42.969,0
0.974,0.186,1.618,-92.407,-16.724,25.818,0
0.933,0.157,1.613,-78.735,-10.01,12.939,0
0.882,0.124,1.556,-68.665,-6.836,9.827,0
0.821,0.099,1.505,-61.401,-2.197,10.01,0
0.761,-0.001,1.452,-57.922,2.258,9.888,0
0.737,-0.092,1.399,-50.476,4.639,9.399,0
0.682,-0.155,1.302,-37.354,6.409,5.249,0
0.653,-0.132,1.24,-23.865,12.817,3.784,0
0.603,-0.216,1.152,-16.785,13.733,7.08,0
0.547,-0.221,1.101,-7.08,10.559,2.625,0
0.547,-0.152,1.007,1.892,0.671,2.38,0
0.564,-0.209,0.942,2.747,1.221,6.226,0
0.551,-0.205,0.895,1.221,4.211,5.493,0
0.517,-0.234,0.866,-1.465,5.737,5.249,0
0.541,-0.31,0.856,-1.892,7.324,4.578,0
0.54,-0.293,0.829,3.235,8.85,-1.526,0
0.546,-0.247,0.798,9.583,10.376,-4.028,0
0.506,-0.196,0.766,11.353,16.052,-1.709,0
0.588,-0.227,0.748,7.996,24.658,5.005,0
0.504,-0.256,0.743,5.249,26.733,2.686,0
0.503,-0.211,0.738,9.644,22.156,0.854,0
0.496,-0.194,0.721,10.742,19.043,-1.465,0
0.479,-0.176,0.719,9.399,12.695,-1.282,0
0.501,-0.179,0.719,4.822,6.897,0.488,0
0.503,-0.209,0.725,-1.221,1.526,2.625,0
0.532,-0.262,0.735,-3.601,-0.854,2.991,0
0.545,-0.262,0.731,0.854,1.16,1.343,0
0.553,-0.231,0.725,5.798,5.127,-1.16,0
0.545,-0.194,0.714,6.775,9.644,-1.587,0
0.528,-0.192,0.714,3.784,13.672,-0.244,0
0.503,-0.176,0.718,0.427,15.991,-0.427,0
0.492,-0.172,0.726,-2.625,14.832,0.244,0
0.485,-0.184,0.74,-5.249,11.108,1.526,0
0.515,-0.194,0.752,-5.432,5.92,3.052,0
0.526,-0.209,0.752,-4.272,0.732,4.333,0
1.545,0.782,-0.372,13.428,-109.985,52.429,0
1.626,0.802,-0.373,9.644,-124.695,59.204,0
1.647,0.815,-0.388,3.296,-140.137,59.631,0
1.622,0.863,-0.393,0.854,-154.968,54.016,0
1.625,0.839,-0.407,-3.784,-171.143,40.527,0
1.519,0.809,-0.362,-15.503,-190.002,25.33,0
1.524,0.799,-0.235,-15.686,-208.618,5.981,0
1.592,0.692,-0.1,-14.16,-229.614,-20.813,0
1.636,0.651,0.023,-6.836,-251.16,-39.612,0
1.683,0.619,0.104,7.385,-265.32,-53.833,0
1.673,0.58,0.179,21.118,-274.231,-69.153,0
1.65,0.603,0.233,37.415,-278.015,-86.121,0
1.67,0.644,0.27,53.101,-275.208,-104.736,0
1.708,0.688,0.325,65.002,-261.597,-125.305,0
1.772,0.731,0.408,73.853,-231.628,-147.583,0
1.788,0.764,0.501,80.017,-182.983,-172.546,0
1.646,0.788,0.553,84.412,-122.192,-201.721,0
1.462,0.799,0.607,87.097,-63.721,-233.276,0
1.248,0.828,0.612,87.769,-14.771,-264.832,0
0.993,0.802,0.612,84.534,17.273,-293.091,0
0.793,0.74,0.584,78.369,33.691,-314.941,0
0.66,0.682,0.556,73.914,36.865,-328.674,0
0.572,0.613,0.554,70.435,32.104,-336.243,0
0.533,0.535,0.572,69.275,27.466,-336.426,0
0.506,0.455,0.583,72.205,25.574,-334.9,0
0.504,0.388,0.586,80.994,24.353,-330.994,0
0.441,0.365,0.559,94.788,25.94,-325.317,0
0.35,0.269,0.516,107.788,26.001,-318.42,0
0.259,0.26,0.447,121.582,21.484,-311.401,0
0.174,0.212,0.38,130.432,13.489,-299.927,0
0.136,0.152,0.312,133.362,3.052,-290.71,0
0.104,0.102,0.264,135.071,-7.69,-281.128,0
0.109,-0.046,0.226,133.362,-17.883,-278.809,0
0.188,-0.054,0.163,136.353,-22.156,-281.616,0
0.184,0.036,0.135,138.672,-7.874,-257.324,0
0.124,-0.147,0.123,122.253,8.606,-239.319,0
0.12,-0.228,0.082,115.112,20.935,-229.248,0
0.052,-0.235,0.033,114.441,28.503,-215.698,0
0.029,-0.317,0.026,111.084,37.292,-201.599,0
-0.025,-0.323,-0.02,105.713,37.537,-189.514,0
-0.076,-0.37,-0.075,99.121,32.898,-169.434,0
-0.063,-0.494,-0.122,89.539,21.362,-153.015,0
-0.069,-0.496,-0.186,84.045,8.545,-143.372,0
-0.079,-0.535,-0.23,78.003,-0.122,-131.104,0
-0.058,-0.605,-0.25,71.655,-8.301,-122.192,0
-0.082,-0.619,-0.269,69.824,-17.578,-114.258,0
0.012,-0.646,-0.289,67.993,-25.33,-100.098,0
0.044,-0.667,-0.287,63.477,-29.48,-86.609,0
0.052,-0.694,-0.281,56.58,-28.87,-72.998,0
0.131,-0.766,-0.292,51.575,-27.832,-57.434,0
0.132,-0.744,-0.301,47.729,-24.353,-50.659,0
0.176,-0.758,-0.301,43.64,-19.714,-39.734,0
0.214,-0.78,-0.314,36.56,-15.869,-31.433,0
0.157,-0.733,-0.372,28.381,-11.353,-25.085,0
0.24,-0.785,-0.393,17.273,-9.46,-9.277,0
0.224,-0.855,-0.405,3.906,-5.249,-5.798,0
0.19,-0.843,-0.418,-3.113,-3.418,-2.197,0
0.245,-0.88,-0.434,-7.935,-8.057,10.437,0
0.262,-0.883,-0.488,-14.16,-9.155,16.479,0
0.251,-0.893,-0.535,-23.499,-9.033,14.16,0
0.197,-0.878,-0.562,-33.936,-10.071,12.817,0
0.16,-0.876,-0.583,-47.241,-15.686,13.489,0
0.117,-0.85,-0.582,-62.927,-22.766,12.695,0
0.041,-0.827,-0.554,-81.238,-31.677,12.939,0
-0.024,-0.817,-0.513,-99.731,-45.532,17.517,0
-0.047,-0.81,-0.442,-115.601,-66.895,25.757,0
-0.023,-0.818,-0.367,-126.892,-90.332,35.339,0
0.023,-0.781,-0.279,-133.606,-107.91,44.434,0
0.095,-0.732,-0.227,-137.939,-114.99,52.979,0
0.15,-0.694,-0.188,-142.029,-114.868,62.744,0
0.212,-0.638,-0.165,-145.996,-110.718,69.092,0
0.202,-0.556,-0.145,-150.513,-100.952,75.928,0
0.176,-0.522,-0.127,-159.485,-91.187,80.261,0
0.133,-0.455,-0.115,-168.762,-85.693,81.848,0
0.078,-0.39,-0.081,-178.406,-85.815,81.604,0
0.054,-0.346,-0.002,-189.27,-92.102,81.238,0
0.084,-0.372,0.119,-198.853,-99.365,80.994,0
0.14,-0.397,0.208,-200.073,-99.976,84.167,0
0.163,-0.336,0.272,-189.941,-95.398,90.515,0
0.194,-0.253,0.355,-177.246,-91.614,99.792,0
0.265,-0.151,0.452,-166.016,-92.468,110.352,0
0.306,-0.031,0.55,-160.339,-95.093,117.188,0
0.403,0.099,0.673,-160.156,-99.792,119.08,0
0.547,0.194,0.808,-164.062,-107.361,116.333,0
0.707,0.292,0.98,-169.922,-110.657,110.107,0
0.831,0.357,1.169,-175.964,-104.797,100.281,0
0.918,0.319,1.347,-181.641,-94.055,87.28,0
0.954,0.282,1.521,-178.589,-79.041,71.411,0
0.975,0.232,1.643,-165.649,-61.768,55.786,0
0.97,0.142,1.67,-146.179,-45.837,41.809,0
0.916,0.14,1.667,-121.887,-32.471,30.945,0
0.831,0.182,1.656,-97.778,-22.095,24.475,0
0.781,0.137,1.618,-81.543,-19.165,22.034,0
0.746,0.084,1.562,-70.251,-20.691,21.606,0
0.707,0.046,1.502,-59.753,-23.315,21.057,0
0.674,-0.017,1.43,-51.453,-27.71,19.775,0
0.715,-0.109,1.347,-44.067,-31.372,17.883,0
0.722,-0.093,1.263,-38.33,-31.311,15.137,0
0.724,-0.194,1.184,-34.058,-30.396,6.104,0
0.758,-0.022,1.152,-24.719,-10.559,3.967,0
0.598,-0.112,1.1,-37.598,10.071,11.23,0
0.613,-0.218,1.126,-39.734,26.855,5.432,0
0.586,-0.175,1.092,-29.297,22.949,-0.305,0
0.527,-0.094,1.035,-26.55,29.48,-6.531,0
0.516,-0.152,1.036,-26.733,34.973,-0.122,0
0.482,-0.153,1.002,-28.564,23.315,1.099,0
0.524,-0.228,0.977,-21.545,10.193,6.104,0
0.54,-0.211,0.948,-10.864,1.648,1.892,0
0.576,-0.213,0.925,0.916,5.066,1.343,0
0.572,-0.282,0.917,10.193,3.296,-3.54,0
0.529,-0.104,0.865,21.423,-3.845,-10.62,0
0.584,-0.122,0.821,20.081,2.869,-1.587,0
0.567,-0.129,0.778,10.315,15.32,2.319,0
0.546,-0.107,0.771,2.563,25.757,5.493,0
0.499,-0.16,0.783,-6.836,25.513,4.517,0
0.49,-0.171,0.773,-8.606,21.362,1.038,0
0.481,-0.19,0.766,-6.775,19.409,-1.526,0
0.46,-0.218,0.769,-3.784,14.465,-6.409,0
0.48,-0.16,0.76,2.136,7.874,-9.705,0
1.399,0.799,-0.368,34.729,-62.439,-9.583,0
1.431,0.791,-0.362,27.039,-89.172,-9.827,0
1.453,0.818,-0.332,21.179,-112.549,-9.949,0
1.571,0.812,-0.255,19.531,-136.23,-21.545,0
1.659,0.788,-0.199,17.273,-154.114,-44.495,0
1.696,0.852,-0.068,17.578,-165.527,-66.101,0
1.756,0.852,-0.002,22.339,-172.913,-91.248,0
1.802,0.765,0.038,17.761,-181.641,-116.516,0
1.79,0.719,0.112,13.672,-191.956,-134.583,0
1.791,0.676,0.133,12.085,-199.829,-151.306,0
1.782,0.674,0.17,12.573,-200.439,-172.913,0
1.759,0.671,0.243,11.23,-190.369,-195.557,0
1.727,0.652,0.359,10.986,-168.945,-217.224,0
1.674,0.623,0.468,14.771,-138.367,-235.718,0
1.596,0.619,0.544,24.17,-102.966,-250.854,0
1.417,0.625,0.589,35.461,-67.993,-264.587,0
1.23,0.613,0.625,44.189,-41.809,-277.588,0
1.07,0.59,0.619,51.208,-27.588,-289.673,0
0.95,0.564,0.588,55.664,-19.897,-301.331,0
0.784,0.523,0.545,58.655,-13.916,-312.195,0
0.651,0.444,0.514,59.387,-9.46,-320.801,0
0.554,0.387,0.475,60.547,-4.211,-327.393,0
0.441,0.347,0.469,63.965,3.174,-329.407,0
0.355,0.321,0.468,70.984,6.897,-327.454,0
0.293,0.259,0.469,80.322,10.681,-322.083,0
0.199,0.223,0.459,91.003,15.076,-314.392,0
0.123,0.165,0.434,101.318,13.062,-303.833,0
0.116,0.1,0.401,111.45,6.531,-291.138,0
0.129,-0.091,0.364,122.131,-3.845,-286.987,0
0.128,-0.001,0.284,139.282,-12.39,-290.1,0
0.058,0.007,0.244,151.245,-12.817,-270.935,0
-0.014,-0.08,0.199,150.208,-11.536,-251.953,0
-0.01,-0.13,0.14,151.245,-11.658,-233.093,0
-0.02,-0.16,0.074,152.527,-11.841,-213.379,0
-0.039,-0.221,-0.005,151.611,-9.277,-194.275,0
-0.039,-0.302,-0.083,149.292,-6.47,-177.002,0
-0.034,-0.339,-0.158,146.179,-3.479,-161.133,0
-0.038,-0.378,-0.234,142.517,-1.404,-146.545,0
-0.077,-0.396,-0.314,135.803,-1.343,-132.996,0
-0.132,-0.444,-0.39,125.854,-2.808,-118.713,0
-0.026,-0.571,-0.448,114.197,-7.202,-105.774,0
-0.044,-0.515,-0.559,103.333,-8.85,-99.976,0
-0.059,-0.551,-0.647,85.876,-5.798,-87.219,0
-0.042,-0.612,-0.737,62.012,-6.348,-71.289,0
0.003,-0.657,-0.792,39.429,-3.418,-57.434,0
-0.089,-0.715,-0.902,15.564,-0.305,-45.105,0
-0.045,-0.761,-0.861,-7.08,5.493,-33.02,0
0.01,-0.769,-0.783,-23.56,13.306,-20.081,0
0.113,-0.776,-0.772,-32.288,14.526,-12.512,0
0.158,-0.773,-0.766,-41.992,9.827,-8.301,0
0.169,-0.719,-0.735,-56.396,10.803,-0.732,0
0.232,-0.743,-0.683,-75.623,11.353,10.071,0
0.23,-0.732,-0.625,-94.971,12.146,13.611,0
0.224,-0.702,-0.562,-111.206,8.911,20.752,0
0.234,-0.69,-0.493,-126.709,2.136,29.968,0
0.217,-0.671,-0.423,-141.846,-5.981,36.987,0
0.23,-0.678,-0.357,-153.87,-18.127,44.006,0
0.256,-0.686,-0.287,-162.903,-34.058,42.175,0
0.274,-0.661,-0.222,-166.748,-50.72,37.109,0
0.308,-0.609,-0.156,-167.236,-64.88,35.339,0
0.335,-0.553,-0.095,-168.213,-74.646,36.926,0
0.37,-0.51,-0.043,-171.326,-79.651,39.49,0
0.391,-0.474,-0.016,-175.415,-81.543,41.26,0
0.397,-0.436,0.004,-180.542,-81.787,40.1,0
0.381,-0.372,0.026,-186.707,-81.848,35.095,0
0.364,-0.308,0.056,-196.716,-81.482,27.466,0
0.33,-0.296,0.151,-210.693,-76.416,20.813,0
0.307,-0.341,0.269,-221.68,-68.42,16.479,0
0.232,-0.359,0.343,-224.67,-63.049,12.695,0
0.27,-0.345,0.406,-217.834,-61.218,21.301,0
0.309,-0.348,0.469,-208.74,-60.303,31.677,0
0.349,-0.326,0.508,-196.228,-53.711,43.335,0
0.37,-0.282,0.536,-183.533,-46.326,56.641,0
0.38,-0.18,0.595,-172.546,-41.504,66.345,0
0.41,-0.087,0.663,-165.833,-41.077,70.801,0
0.459,-0.035,0.744,-163.086,-44.128,71.594,0
0.499,0.057,0.862,-160.706,-50.781,70.557,0
0.531,0.143,1.024,-160.767,-60.852,69.336,0
0.633,0.125,1.239,-164.307,-76.05,69.275,0
0.798,0.08,1.417,-162.354,-91.125,71.167,0
0.964,0.098,1.533,-149.78,-95.398,72.571,0
1.079,0.138,1.599,-132.08,-84.045,70.984,0
1.137,0.138,1.655,-115.54,-59.082,64.697,0
1.132,0.166,1.645,-98.694,-34.18,46.753,0
1.126,0.233,1.663,-82.336,-3.296,33.997,0
0.954,0.095,1.629,-79.529,22.461,21.362,0
1.058,-0.069,1.599,-69.946,40.161,3.418,0
0.858,-0.108,1.49,-57.556,41.687,-1.526,0
0.699,-0.055,1.355,-44.128,34.485,-17.212,0
0.813,0.021,1.335,-28.687,47.424,-5.493,0
0.493,-0.267,1.229,-40.161,33.508,-8.85,0
0.631,-0.141,1.161,-21.729,13.184,-8.301,0
0.64,-0.17,1.047,-19.104,-0.305,1.16,0
0.605,-0.27,1.036,-21.606,4.395,9.399,0
0.61,-0.347,0.99,-13.977,-1.709,12.878,0
0.622,-0.244,0.927,2.319,3.723,8.606,0
0.648,-0.297,0.881,10.01,9.949,7.324,0
0.618,-0.217,0.836,16.479,14.099,1.465,0
0.614,-0.164,0.793,19.775,18.127,-0.305,0
0.612,-0.157,0.758,14.771,21.118,-2.502,0
0.601,-0.15,0.741,9.094,24.902,-4.089,0
0.586,-0.241,0.727,5.127,25.818,-8.606,0
0.583,-0.198,0.71,8.667,23.865,-16.785,0
0.558,-0.103,0.705,8.545,23.743,-16.907,0
0.555,-0.205,0.727,0,22.095,-7.751,0
0.579,-0.282,0.729,-2.136,18.86,-6.836,0
0.481,-0.211,0.696,6.042,8.057,-13.916,0
0.574,-0.047,0.687,12.085,7.69,-4.395,0
0.49,-0.351,0.696,1.892,5.737,4.578,0
0.533,-0.152,0.688,9.583,-2.319,-2.808,0
0.538,-0.114,0.679,11.292,-8.362,7.874,0
0.518,-0.223,0.684,0.793,-10.193,11.23,0
0.544,-0.186,0.669,0.244,-14.221,10.803,0
0.557,-0.193,0.674,0.61,-13.428,10.437,0
0.54,-0.22,0.679,-1.343,-10.681,5.676,0
0.546,-0.175,0.69,0.671,-9.277,2.686,0
0.53,-0.166,0.692,-0.061,-8.606,3.052,0
0.543,-0.172,0.696,-2.869,-7.751,4.15,0
0.539,-0.181,0.7,-3.906,-7.08,4.944,0
1.417,0.925,-0.313,72.083,-63.232,7.202,0
1.471,0.974,-0.321,68.237,-53.162,-0.244,0
1.516,0.968,-0.333,59.509,-46.021,-11.23,0
1.56,0.946,-0.349,45.715,-43.152,-24.719,0
1.582,0.899,-0.348,28.198,-42.419,-37.109,0
1.56,0.929,-0.307,11.23,-43.213,-47.119,0
1.611,0.943,-0.272,-0.61,-48.157,-65.796,0
1.586,0.884,-0.258,-18.127,-58.167,-91.431,0
1.575,0.884,-0.18,-32.837,-72.388,-111.877,0
1.605,0.839,-0.12,-44.25,-86.548,-134.277,0
1.616,0.791,-0.084,-57.556,-102.722,-156.067,0
1.604,0.75,-0.065,-66.162,-117.615,-174.866,0
1.549,0.71,-0.029,-71.411,-130.005,-194.092,0
1.472,0.665,0.05,-73.914,-140.747,-214.661,0
1.42,0.625,0.133,-71.716,-149.109,-234.436,0
1.398,0.597,0.19,-64.392,-155.151,-251.953,0
1.338,0.542,0.248,-54.993,-156.799,-265.808,0
1.279,0.504,0.325,-43.823,-152.405,-276.001,0
1.232,0.492,0.373,-31.982,-145.081,-284.668,0
1.175,0.482,0.427,-20.63,-134.766,-292.419,0
1.12,0.469,0.468,-8.301,-121.155,-298.035,0
1.065,0.445,0.483,4.7,-103.21,-301.392,0
0.984,0.408,0.512,16.052,-81.421,-303.589,0
0.891,0.404,0.518,27.222,-58.289,-305.359,0
0.761,0.404,0.524,37.476,-38.635,-307.495,0
0.624,0.345,0.498,45.349,-23.804,-309.021,0
0.526,0.307,0.472,53.711,-13.489,-309.692,0
0.445,0.304,0.436,60.669,-5.615,-309.326,0
0.336,0.264,0.413,64.026,1.587,-304.932,0
0.246,0.181,0.398,64.331,6.165,-301.514,0
0.177,0.155,0.349,66.772,7.751,-297.18,0
0.089,0.057,0.302,70.679,5.615,-287.537,0
0.11,-0.086,0.246,76.66,-2.563,-284.485,0
0.09,-0.05,0.194,90.881,-3.723,-274.231,0
0.045,-0.131,0.196,100.281,-0.427,-252.502,0
0.03,-0.177,0.165,105.713,-3.845,-237.427,0
-0.026,-0.179,0.095,112.488,-11.597,-217.59,0
-0.009,-0.258,0.056,112.61,-16.724,-197.632,0
0.023,-0.286,0.003,111.511,-20.752,-181.03,0
-0.024,-0.276,-0.072,109.68,-20.142,-160.156,0
0.038,-0.425,-0.114,104.065,-18.188,-143.555,0
0.047,-0.427,-0.182,104.004,-18.433,-137.451,0
0.053,-0.425,-0.232,105.469,-13.916,-124.329,0
0.062,-0.508,-0.246,101.44,-7.935,-114.258,0
0.011,-0.501,-0.284,98.267,-6.042,-108.032,0
0.104,-0.553,-0.343,93.994,-6.409,-96.68,0
0.078,-0.523,-0.397,86.243,-2.93,-86.731,0
0.033,-0.573,-0.41,72.632,1.099,-73.547,0
0.078,-0.686,-0.513,55.725,0.061,-57.739,0
-0.249,-0.569,-0.889,35.4,2.38,-47.974,0
-0.261,-0.615,-0.936,8.057,-5.859,-29.846,0
0.027,-0.781,-0.659,-16.296,-8.789,-8.85,0
0.06,-0.936,-0.539,-20.996,-2.197,-7.385,0
0.055,-0.796,-0.535,-9.766,-7.751,-6.226,0
0.218,-0.776,-0.507,-6.409,-16.357,5.676,0
0.233,-0.795,-0.468,-15.381,-21.057,8.667,0
0.229,-0.752,-0.464,-26.428,-23.01,15.686,0
0.295,-0.743,-0.484,-40.771,-21.423,30.273,0
0.276,-0.756,-0.531,-59.998,-15.625,37.354,0
0.235,-0.743,-0.544,-78.979,-13.489,43.274,0
0.22,-0.773,-0.536,-97.29,-19.653,45.349,0
0.188,-0.772,-0.506,-113.342,-30.701,38.696,0
0.12,-0.743,-0.459,-125.183,-43.701,33.325,0
0.072,-0.716,-0.415,-135.254,-61.462,33.569,0
0.062,-0.675,-0.373,-144.409,-83.252,37.72,0
0.078,-0.62,-0.335,-153.564,-104.004,42.603,0
0.111,-0.579,-0.26,-164.246,-120.117,45.105,0
0.138,-0.527,-0.199,-175.293,-127.258,44.434,0
0.141,-0.468,-0.138,-185.425,-124.817,47.729,0
0.156,-0.436,-0.075,-195.862,-121.033,52.795,0
0.187,-0.41,-0.01,-205.383,-117.004,59.082,0
0.187,-0.41,0.052,-212.585,-109.497,66.956,0
0.196,-0.421,0.109,-216.858,-101.501,73.853,0
0.189,-0.395,0.154,-216.003,-95.398,82.336,0
0.178,-0.349,0.216,-211.914,-91.492,90.271,0
0.207,-0.313,0.296,-207.336,-90.332,99.121,0
0.261,-0.252,0.386,-200.134,-91.003,107.178,0
0.326,-0.152,0.495,-189.697,-92.651,113.281,0
0.431,-0.039,0.599,-180.42,-92.834,117.31,0
0.505,0.042,0.705,-175.11,-90.637,117.004,0
0.574,0.116,0.821,-171.997,-88.684,112.915,0
0.57,0.218,1.01,-171.265,-88.318,105.164,0
0.673,0.284,1.207,-171.021,-96.13,96.68,0
0.886,0.269,1.358,-169.8,-109.314,88.684,0
1.033,0.305,1.5,-164.612,-106.201,78.125,0
1.12,0.289,1.602,-155.029,-83.191,61.462,0
1.151,0.319,1.655,-141.602,-45.593,48.035,0
1.045,0.258,1.701,-130.31,-6.348,36.133,0
1.002,0.33,1.732,-113.159,16.907,20.142,0
0.763,0.434,1.669,-99.67,31.433,13.977,0
0.919,-0.057,1.673,-87.708,42.114,7.507,0
0.864,0.463,1.565,-57.922,43.884,-14.404,0
0.695,0.141,1.547,-58.411,42.236,10.315,0
0.74,0.089,1.461,-60.425,21.851,5.005,0
0.759,0.105,1.377,-42.053,-1.587,11.597,0
0.786,-0.014,1.263,-35.156,-10.681,19.287,0
0.724,-0.029,1.163,-26.123,-8.667,22.156,0
0.752,-0.149,1.071,-14.343,-9.827,27.405,0
0.728,-0.128,1.003,-2.319,-4.822,15.32,0
0.703,-0.078,0.93,7.385,0.793,7.446,0
0.695,-0.099,0.863,8.118,8.118,4.15,0
0.674,-0.066,0.793,5.554,16.846,-0.061,0
0.65,-0.099,0.776,0.427,25.513,-2.075,0
0.592,-0.141,0.77,-5.432,30.823,-5.005,0
0.556,-0.153,0.764,-5.92,29.846,-5.676,0
0.547,-0.183,0.755,-4.456,24.048,-5.188,0
0.531,-0.167,0.744,-1.221,15.381,-4.15,0
0.567,-0.157,0.718,2.625,10.193,0.977,0
0.499,-0.197,0.706,4.089,1.16,1.892,0
0.619,-0.068,0.701,7.996,-1.831,8.362,0
0.562,-0.153,0.672,3.54,1.526,17.944,0
0.558,-0.127,0.694,3.845,0.854,11.353,0
0.603,-0.054,0.671,6.165,-3.784,10.864,0
0.59,-0.049,0.677,2.991,2.747,14.282,0
0.557,-0.046,0.688,-2.747,4.7,14.221,0
0.583,-0.056,0.697,-7.202,5.066,10.62,0
0.577,-0.061,0.705,-9.033,7.935,10.925,0
0.583,-0.081,0.707,-10.864,12.024,5.676,0
0.57,-0.037,0.714,-8.301,15.503,6.226,0
1.721,0.949,-0.165,8.362,-106.262,-27.527,0
1.831,0.97,-0.144,0.244,-130.676,-46.692,0
1.911,1.01,-0.074,-11.108,-151.123,-67.322,0
1.98,1.002,0.026,-26.306,-165.283,-88.867,0
2.017,0.941,0.141,-41.87,-173.889,-110.352,0
2.065,0.882,0.264,-50.476,-176.575,-128.601,0
2.092,0.815,0.359,-49.255,-174.622,-142.09,0
2.067,0.735,0.413,-40.649,-169.983,-154.541,0
2.005,0.699,0.444,-26.123,-164.978,-168.213,0
1.903,0.684,0.453,-8.179,-158.997,-181.885,0
1.799,0.663,0.449,8.606,-154.236,-198.12,0
1.733,0.668,0.476,23.315,-147.278,-214.417,0
1.64,0.715,0.516,36.926,-134.094,-228.76,0
1.525,0.744,0.573,46.814,-119.873,-241.882,0
1.467,0.763,0.58,54.871,-106.506,-254.578,0
1.332,0.759,0.62,61.462,-92.468,-268.188,0
1.185,0.735,0.669,65.247,-75.439,-278.564,0
1.049,0.681,0.687,70.435,-60.059,-285.034,0
0.922,0.611,0.682,80.017,-51.025,-289.551,0
0.817,0.605,0.673,95.642,-44.617,-291.809,0
0.692,0.618,0.645,113.22,-39.124,-291.504,0
0.563,0.586,0.587,127.197,-34.119,-292.358,0
0.483,0.534,0.531,140.015,-30.029,-296.021,0
0.39,0.496,0.467,153.015,-23.804,-301.941,0
0.281,0.442,0.43,165.283,-14.282,-307.19,0
0.17,0.428,0.366,174.927,-5.127,-311.829,0
0.083,0.405,0.288,179.687,2.502,-310.913,0
-0.018,0.337,0.196,178.65,9.827,-306.58,0
-0.117,0.252,0.108,173.157,16.357,-300.842,0
-0.185,0.156,0.046,166.443,22.644,-289.185,0
-0.22,0.068,-0.017,160.4,28.137,-273.376,0
-0.263,-0.003,-0.09,155.09,31.067,-253.601,0
-0.314,-0.009,-0.171,147.339,34.058,-228.699,0
-0.521,-0.227,-0.165,141.357,32.227,-178.345,0
-0.11,-0.67,-0.191,144.958,1.465,-154.846,0
-0.314,-0.137,-0.369,163.757,8.911,-182.129,0
-0.205,-0.389,-0.382,153.748,28.503,-152.405,0
-0.23,-0.457,-0.443,134.338,33.508,-145.569,0
-0.222,-0.431,-0.497,122.864,34.607,-135.437,0
-0.181,-0.471,-0.524,104.065,32.715,-123.352,0
-0.076,-0.435,-0.613,81.299,27.954,-114.075,0
-0.264,-0.554,-0.898,46.814,27.1,-104.004,0
-0.342,-0.638,-0.878,4.089,39.124,-75.684,0
-0.197,-0.789,-0.725,-28.564,51.88,-48.096,0
-0.096,-0.91,-0.527,-36.133,44.739,-34.485,0
-0.063,-0.897,-0.406,-20.935,29.053,-30.701,0
0.087,-0.857,-0.361,-8.85,14.465,-27.527,0
0.166,-0.818,-0.35,-9.033,4.395,-19.47,0
0.254,-0.792,-0.333,-18.738,-6.165,-8.057,0
0.379,-0.684,-0.294,-25.513,-7.751,0.122,0
0.337,-0.697,-0.342,-39.978,-2.075,0.671,0
0.339,-0.776,-0.326,-62.927,3.54,20.264,0
0.362,-0.774,-0.324,-77.332,10.071,22.888,0
0.25,-0.766,-0.307,-88.684,13,23.315,0
0.176,-0.8,-0.265,-96.741,2.747,30.09,0
0.15,-0.784,-0.253,-101.746,-16.235,31.25,0
0.107,-0.751,-0.235,-107.727,-38.94,36.804,0
0.154,-0.799,-0.227,-116.028,-60.852,40.955,0
0.125,-0.761,-0.217,-123.718,-76.477,28.687,0
0.084,-0.678,-0.186,-128.54,-89.661,26.306,0
0.106,-0.609,-0.151,-136.963,-100.891,32.166,0
0.159,-0.585,-0.107,-149.902,-105.957,38.696,0
0.184,-0.596,-0.083,-162.476,-106.079,38.757,0
0.168,-0.503,-0.059,-171.082,-99.121,35.278,0
0.162,-0.484,0,-182.129,-87.708,38.757,0
0.135,-0.434,0.038,-194.092,-79.59,41.931,0
0.108,-0.403,0.091,-202.576,-75.134,50.964,0
0.099,-0.407,0.146,-210.022,-74.036,56.396,0
0.123,-0.398,0.208,-213.684,-74.707,62.195,0
0.159,-0.392,0.286,-213.501,-72.266,69.885,0
0.205,-0.386,0.36,-210.083,-65.369,79.163,0
0.266,-0.372,0.405,-202.515,-59.326,89.966,0
0.291,-0.31,0.439,-190.186,-55.725,101.257,0
0.384,-0.173,0.5,-176.147,-55.481,111.023,0
0.396,-0.118,0.627,-169.373,-53.955,117.004,0
0.433,-0.011,0.777,-163.33,-57.617,120.972,0
0.575,-0.003,0.916,-155.823,-74.28,116.15,0
0.703,0.192,1.116,-144.775,-84.961,108.154,0
0.795,0.378,1.346,-137.939,-93.506,109.314,0
0.965,0.424,1.576,-138.123,-102.051,101.379,0
1.117,0.429,1.76,-137.573,-104.004,89.844,0
1.183,0.403,1.897,-129.822,-90.149,77.759,0
1.228,0.324,1.955,-113.892,-70.618,58.35,0
1.276,0.206,1.956,-90.393,-49.255,36.194,0
1.2,0.139,1.824,-64.636,-36.133,16.785,0
1.013,0.317,1.709,-41.992,0,13.062,0
0.89,-0.084,1.643,-41.016,21.301,7.202,0
0.75,0.017,1.457,-23.01,26.245,-9.155,0
0.663,-0.127,1.337,-11.108,47.18,-12.817,0
0.519,-0.252,1.254,-5.371,48.157,-23.437,0
0.535,-0.294,1.139,7.324,37.964,-31.006,0
0.482,-0.247,1.016,14.832,28.564,-28.809,0
0.503,-0.178,0.953,9.216,28.259,-13.489,0
0.417,-0.302,0.883,-2.563,29.541,-0.549,0
0.467,-0.328,0.877,-0.732,23.682,3.845,0
0.519,-0.264,0.799,1.16,12.451,8.301,0
0.517,-0.229,0.781,0.488,19.348,16.846,0
0.551,-0.292,0.765,-1.099,17.639,23.315,0
0.578,-0.245,0.736,2.258,14.343,19.531,0
0.605,-0.241,0.719,4.7,16.479,12.878,0
0.57,-0.186,0.712,6.836,17.883,5.554,0
0.552,-0.135,0.705,5.554,20.264,3.662,0
0.557,-0.21,0.7,0.549,21.912,3.784,0
0.544,-0.199,0.705,0.793,22.949,-0.427,0
0.552,-0.197,0.718,0.916,22.461,0.977,0
0.518,-0.225,0.717,-1.221,18.25,0.732,0
0.524,-0.221,0.719,2.808,14.893,1.282,0
0.499,-0.221,0.716,5.31,10.803,-0.427,0
0.506,-0.232,0.722,6.592,3.235,-0.916,0
0.506,-0.191,0.703,6.714,-3.174,-2.197,0
0.512,-0.156,0.691,3.784,-3.967,2.014,0
0.509,-0.221,0.714,-3.296,-3.906,5.615,0
0.504,-0.232,0.727,-5.249,-7.874,3.357,0
0.537,-0.183,0.724,-1.892,-9.827,2.93,0
0.531,-0.2,0.725,-3.357,-8.362,4.272,0
0.547,-0.214,0.73,-3.357,-6.348,4.517,0
0.552,-0.178,0.726,-0.488,-4.883,2.808,0
0.545,-0.159,0.728,-0.183,-2.075,2.869,0
0.534,-0.17,0.727,-1.648,0.793,3.296,0
1.793,0.497,0.276,-39.063,-181.702,-114.502,0
1.816,0.467,0.31,-28.503,-187.683,-120.483,0
1.801,0.454,0.384,-16.113,-183.228,-127.441,0
1.8,0.493,0.462,-0.183,-170.41,-137.878,0
1.764,0.517,0.52,17.639,-149.78,-151.978,0
1.75,0.546,0.56,35.645,-126.587,-166.87,0
1.674,0.592,0.583,52.246,-104.675,-182.922,0
1.555,0.629,0.592,64.331,-87.28,-200.378,0
1.412,0.633,0.604,70.374,-74.768,-217.957,0
1.267,0.607,0.631,72.449,-65.552,-234.192,0
1.174,0.594,0.651,74.341,-58.777,-248.779,0
1.078,0.57,0.653,77.026,-51.88,-260.742,0
0.986,0.525,0.656,80.566,-42.969,-271.79,0
0.909,0.492,0.655,87.524,-30.64,-281.86,0
0.829,0.454,0.643,96.802,-15.808,-290.039,0
0.693,0.442,0.632,107.117,-2.808,-295.654,0
0.569,0.354,0.617,117.615,5.981,-295.471,0
0.451,0.434,0.579,127.625,9.033,-292.114,0
0.332,0.265,0.552,132.446,4.15,-284.851,0
0.291,0.259,0.498,139.465,-3.357,-285.4,0
0.216,0.228,0.461,147.034,-7.751,-278.259,0
0.195,0.131,0.45,148.804,-10.559,-276.672,0
0.216,0.093,0.425,153.503,-10.803,-276.672,0
0.199,0.182,0.374,158.63,-2.197,-262.573,0
0.056,0.045,0.34,151.367,9.155,-242.554,0
0.03,-0.057,0.293,145.813,11.719,-233.093,0
0.006,-0.083,0.242,151.123,11.963,-218.994,0
-0.037,-0.122,0.172,153.381,12.817,-207.52,0
-0.035,-0.16,0.108,152.771,12.451,-198.242,0
-0.042,-0.228,0.043,150.146,10.986,-187.5,0
-0.052,-0.259,-0.033,147.827,9.949,-174.683,0
-0.051,-0.322,-0.119,145.447,10.559,-159.18,0
-0.095,-0.389,-0.185,141.235,12.512,-144.287,0
-0.118,-0.429,-0.245,138.306,14.526,-128.845,0
-0.127,-0.523,-0.3,135.01,13.672,-116.089,0
-0.158,-0.57,-0.352,132.874,9.827,-108.826,0
-0.1,-0.607,-0.429,130.554,3.54,-98.877,0
-0.177,-0.559,-0.523,122.803,-1.709,-85.693,0
-0.115,-0.676,-0.63,107.117,-8.118,-66.589,0
-0.066,-0.706,-0.725,88.989,-12.207,-58.411,0
-0.103,-0.735,-0.876,66.65,-13,-50.293,0
-0.251,-0.713,-1.07,36.072,-10.132,-29.358,0
-0.148,-0.792,-1.018,8.484,-14.709,-23.621,0
-0.02,-0.869,-0.871,-11.658,-15.93,-18.86,0
0.037,-0.88,-0.812,-24.414,-7.08,-12.573,0
0.062,-0.814,-0.848,-39.734,3.296,-5.31,0
0.054,-0.832,-0.836,-62.744,13.611,6.47,0
0.01,-0.924,-0.774,-86.975,15.625,20.264,0
0.017,-0.972,-0.739,-103.271,8.057,25.33,0
-0.011,-0.879,-0.714,-114.38,-0.305,23.865,0
-0.036,-0.829,-0.66,-128.662,-8.118,31.006,0
-0.031,-0.828,-0.565,-146.729,-23.071,42.053,0
-0.035,-0.824,-0.457,-162.292,-41.565,51.819,0
-0.021,-0.8,-0.346,-171.631,-59.814,61.035,0
0.003,-0.751,-0.246,-175.232,-75.867,68.176,0
0.018,-0.686,-0.165,-175.293,-89.417,76.172,0
0.054,-0.608,-0.104,-174.255,-99.182,86.304,0
0.084,-0.546,-0.042,-175.476,-104.126,94.482,0
0.078,-0.491,0.041,-178.162,-105.652,101.807,0
0.07,-0.448,0.146,-179.321,-107.056,110.168,0
0.067,-0.397,0.23,-178.65,-108.215,119.263,0
0.105,-0.346,0.322,-175.415,-111.572,129.211,0
0.177,-0.299,0.399,-169.189,-119.995,136.108,0
0.238,-0.203,0.47,-160.95,-127.869,137.207,0
0.298,-0.078,0.581,-155.701,-129.639,135.315,0
0.406,0.038,0.75,-155.029,-130.31,132.08,0
0.479,0.096,0.892,-157.104,-130.859,128.662,0
0.669,0.175,1.054,-157.654,-130.188,123.718,0
0.798,0.258,1.22,-156.067,-122.375,114.624,0
0.902,0.299,1.396,-155.64,-105.53,101.868,0
1.004,0.317,1.538,-152.588,-82.703,88.562,0
1.05,0.296,1.618,-143.677,-57.007,74.951,0
1.018,0.252,1.648,-129.517,-35.156,61.157,0
0.97,0.24,1.65,-110.291,-18.555,48.279,0
0.899,0.24,1.615,-91.492,-9.094,38.208,0
0.874,0.148,1.549,-76.782,-5.127,32.043,0
0.83,0.091,1.447,-62.866,-2.93,27.466,0
0.777,0.065,1.359,-51.819,-1.648,24.536,0
0.546,0.073,1.243,-45.715,-4.15,22.4,0
0.767,-0.253,1.24,-39.917,-8.301,24.597,0
0.623,-0.033,1.114,-29.419,-16.113,16.724,0
0.626,-0.163,1.068,-27.71,-15.198,27.222,0
0.635,-0.283,1.019,-27.222,-17.517,25.085,0
0.659,-0.232,0.959,-14.648,-18.86,22.705,0
0.661,-0.226,0.898,-8.118,-13.55,25.085,0
0.665,-0.274,0.876,-7.263,-3.113,22.888,0
0.663,-0.222,0.844,-3.113,4.517,17.883,0
0.655,-0.205,0.834,-2.747,9.277,14.282,0
0.669,-0.209,0.808,-6.958,9.827,10.742,0
0.676,-0.24,0.804,-10.498,11.23,10.376,0
0.659,-0.25,0.803,-10.986,10.071,7.202,0
0.673,-0.245,0.811,-7.935,7.629,7.751,0
0.662,-0.255,0.796,-6.47,3.601,8.606,0
0.663,-0.227,0.78,-3.418,0.549,12.207,0
0.652,-0.237,0.765,-2.258,-2.014,15.808,0
0.662,-0.246,0.755,-0.488,-3.906,16.602,0
0.659,-0.227,0.734,2.991,-4.15,15.076,0
0.65,-0.201,0.712,4.7,-2.319,12.756,0
0.623,-0.21,0.707,3.357,0.488,9.521,0
0.605,-0.191,0.699,2.136,2.38,6.348,0
0.598,-0.203,0.688,0.61,5.066,5.188,0
0.585,-0.222,0.688,-1.282,9.399,5.005,0
0.577,-0.206,0.674,-1.648,12.573,3.906,0
0.549,-0.171,0.677,-1.831,16.968,6.836,0
0.521,-0.174,0.663,-3.235,13.977,6.226,0
0.516,-0.095,0.641,0,16.541,10.742,0
0.484,-0.156,0.658,-4.639,20.447,14.771,0
0.489,-0.14,0.653,-6.226,15.32,13.55,0
0.515,-0.114,0.635,-3.418,12.939,16.174,0
0.529,-0.109,0.628,-3.845,16.113,19.47,0
0.537,-0.152,0.621,-5.432,19.836,20.508,0
0.559,-0.129,0.6,-4.395,26.123,21.973,0
0.575,-0.13,0.584,-4.883,36.377,25.391,0
0.576,-0.153,0.579,-8.423,46.265,27.466,0
0.567,-0.127,0.586,-10.498,59.57,32.349,0
0.547,-0.094,0.593,-14.038,74.463,40.1,0
0.513,-0.1,0.595,-18.494,84.961,45.166,0
0.49,-0.102,0.592,-20.508,87.646,46.448,0
0.49,-0.08,0.592,-19.897,85.632,47.852,0
1.716,0.557,0.253,42.664,-87.83,-81.787,0
1.721,0.547,0.269,58.228,-93.018,-95.581,0
1.674,0.563,0.268,71.96,-100.647,-112.549,0
1.609,0.583,0.289,79.712,-107.605,-130.188,0
1.585,0.576,0.331,80.933,-114.929,-147.766,0
1.583,0.558,0.387,79.956,-121.46,-164.307,0
1.549,0.537,0.42,81.055,-123.84,-180.298,0
1.531,0.505,0.443,82.947,-120.789,-195.129,0
1.459,0.462,0.49,84.778,-111.084,-208.74,0
1.34,0.436,0.479,87.463,-97.961,-221.069,0
1.218,0.405,0.451,90.515,-86.67,-232.544,0
1.117,0.37,0.423,92.896,-78.247,-243.286,0
1.016,0.32,0.39,95.093,-70.984,-251.892,0
0.931,0.286,0.35,95.886,-62.805,-259.216,0
0.872,0.258,0.295,96.436,-52.063,-264.954,0
0.806,0.219,0.264,94.36,-38.33,-268.677,0
0.693,0.177,0.284,87.524,-22.888,-271.179,0
0.599,0.131,0.318,80.2,-8.179,-273.56,0
0.539,0.12,0.338,73.181,4.883,-273.56,0
0.483,0.088,0.354,67.749,16.052,-271.301,0
0.449,0.055,0.362,65.735,23.804,-269.592,0
0.411,0.012,0.369,66.101,32.593,-267.883,0
0.377,-0.025,0.4,68.97,43.274,-263.916,0
0.345,-0.045,0.414,73.303,54.016,-258.301,0
0.28,-0.041,0.404,77.576,61.707,-249.023,0
0.233,-0.062,0.381,78.43,64.819,-239.685,0
0.178,-0.063,0.346,79.407,65.063,-231.14,0
0.108,-0.1,0.325,79.59,63.171,-222.046,0
0.052,-0.167,0.299,81.238,56.824,-212.341,0
0.029,-0.21,0.255,91.187,45.166,-201.05,0
0.01,-0.235,0.181,105.042,31.067,-190.43,0
-0.018,-0.259,0.084,117.554,18.982,-180.542,0
-0.058,-0.278,-0.01,127.197,8.301,-169.556,0
-0.1,-0.309,-0.06,133.118,-1.343,-154.785,0
-0.148,-0.338,-0.095,135.925,-12.451,-135.986,0
-0.039,-0.397,-0.161,135.864,-26.611,-114.197,0
-0.063,-0.314,-0.306,130.798,-32.593,-95.276,0
0.016,-0.344,-0.425,115.54,-30.823,-71.777,0
0.124,-0.45,-0.49,92.957,-24.536,-54.138,0
0.198,-0.521,-0.605,70.313,-8.24,-38.452,0
-0.006,-0.44,-0.959,45.532,13.428,-21.179,0
0.018,-0.554,-0.978,14.709,20.447,-11.047,0
0.218,-0.711,-0.794,-8.789,38.452,0.793,0
0.154,-0.832,-0.681,-17.09,60.181,2.258,0
0.154,-0.851,-0.702,-13.977,60.242,-1.465,0
0.193,-0.816,-0.715,-13.611,49.561,-1.77,0
0.214,-0.845,-0.699,-23.865,40.161,-0.244,0
0.194,-0.835,-0.709,-41.26,33.02,4.456,0
0.226,-0.87,-0.737,-58.838,23.743,15.198,0
0.23,-0.827,-0.762,-76.172,13.184,19.592,0
0.212,-0.814,-0.748,-97.9,2.502,21.118,0
0.207,-0.813,-0.698,-122.62,-10.376,21.729,0
0.193,-0.827,-0.622,-145.874,-24.597,20.203,0
0.153,-0.801,-0.538,-163.513,-37.231,16.602,0
0.14,-0.755,-0.47,-174.805,-48.95,16.968,0
0.135,-0.69,-0.403,-182.556,-58.655,19.47,0
0.158,-0.648,-0.303,-189.697,-64.697,22.827,0
0.177,-0.624,-0.194,-196.35,-64.575,27.71,0
0.194,-0.577,-0.124,-199.585,-60.242,33.875,0
0.212,-0.519,-0.065,-200.806,-52.673,40.71,0
0.187,-0.476,0.002,-203.247,-42.419,49.072,0
0.153,-0.431,0.068,-205.627,-35.217,59.57,0
0.117,-0.371,0.143,-206.177,-37.537,71.228,0
0.136,-0.331,0.199,-205.566,-50.232,82.703,0
0.179,-0.27,0.248,-204.285,-67.749,90.637,0
0.215,-0.177,0.36,-203.552,-82.52,94.91,0
0.31,-0.136,0.481,-203.552,-92.468,99.915,0
0.416,-0.115,0.57,-201.172,-101.135,102.478,0
0.616,-0.003,0.677,-191.65,-102.722,103.943,0
0.639,0.061,0.786,-183.655,-92.285,101.074,0
0.682,0.123,0.912,-178.284,-78.43,95.215,0
0.722,0.209,1.041,-171.631,-71.289,88.928,0
0.78,0.287,1.202,-167.358,-72.693,82.214,0
0.883,0.312,1.376,-165.649,-77.393,76.355,0
1.004,0.336,1.517,-161.56,-79.102,71.594,0
1.088,0.349,1.65,-152.283,-74.768,65.43,0
1.159,0.306,1.733,-138.184,-62.927,58.228,0
1.175,0.283,1.74,-118.225,-48.157,46.875,0
1.138,0.268,1.722,-95.764,-31.555,32.654,0
1.091,0.194,1.679,-74.341,-19.348,13.794,0
1.046,0.271,1.594,-53.162,-1.831,1.648,0
0.75,0.225,1.517,-46.753,12.939,-4.822,0
0.813,-0.138,1.526,-36.987,8.362,-15.442,0
0.77,0.142,1.309,-13.367,-3.601,-23.743,0
0.779,-0.076,1.183,-13.306,10.193,-6.348,0
0.592,-0.253,1.129,-20.264,13.916,-11.292,0
0.594,-0.233,1.037,-7.019,-6.042,-12.512,0
0.635,-0.179,0.909,1.892,-10.01,-7.202,0
0.597,-0.335,0.848,-1.038,-2.136,1.648,0
0.532,-0.368,0.785,1.404,-0.854,0.244,0
0.521,-0.324,0.741,10.803,-0.366,-0.671,0
0.54,-0.338,0.71,14.16,-2.808,-2.258,0
0.542,-0.312,0.676,16.663,-2.197,-2.075,0
0.537,-0.31,0.653,15.869,0.366,-0.549,0
0.542,-0.266,0.631,13,-0.183,1.465,0
0.564,-0.253,0.62,7.263,2.808,5.92,0
0.54,-0.288,0.626,-0.061,5.981,6.714,0
0.534,-0.279,0.625,-2.319,4.7,4.761,0
0.532,-0.248,0.626,-4.028,0.977,4.272,0
0.541,-0.261,0.647,-7.996,-1.587,6.409,0
0.56,-0.287,0.667,-11.23,-3.662,9.399,0
0.566,-0.261,0.677,-9.644,-4.395,9.949,0
0.569,-0.25,0.676,-6.348,-3.967,11.23,0
0.567,-0.229,0.683,-4.7,-5.188,9.094,0
0.597,-0.191,0.681,-3.052,-5.31,9.094,0
0.583,-0.168,0.688,-4.883,-3.235,7.202,0
0.571,-0.148,0.701,-8.85,-3.418,4.822,0
0.582,-0.137,0.718,-13.855,-3.967,3.235,0
0.59,-0.148,0.743,-19.531,-3.845,2.502,0
0.59,-0.162,0.764,-22.888,-1.16,1.77,0
0.584,-0.165,0.775,-22.888,2.991,0.732,0
0.579,-0.17,0.785,-20.752,6.165,-0.61,0
0.568,-0.172,0.787,-17.639,6.714,-1.831,0
0.56,-0.167,0.785,-13.55,5.31,-3.235,0
0.545,-0.152,0.773,-10.193,2.747,-3.906,0
0.543,-0.142,0.763,-8.972,0.122,-3.845,0
0.54,-0.151,0.757,-9.827,-2.869,-3.235,0
0.542,-0.157,0.755,-11.108,-4.883,-2.747,0
0.534,-0.185,0.739,-12.817,-5.981,-2.136,0
1.336,1.028,-0.264,-28.015,12.695,33.325,0
1.312,1.043,-0.276,-42.542,15.625,17.029,0
1.293,1.026,-0.304,-55.969,8.545,0.977,0
1.283,1,-0.334,-66.65,-7.507,-13.672,0
1.332,0.938,-0.289,-73.669,-33.081,-30.823,0
1.359,0.937,-0.248,-73.608,-58.594,-49.561,0
1.379,0.919,-0.207,-70.313,-83.984,-72.266,0
1.454,0.904,-0.174,-67.505,-112.305,-94.666,0
1.5,0.93,-0.141,-62.866,-135.071,-115.662,0
1.499,0.924,-0.114,-60.425,-150.818,-136.719,0
1.466,0.882,-0.083,-59.937,-162.903,-158.325,0
1.463,0.819,-0.016,-60.73,-169.8,-177.856,0
1.49,0.754,0.059,-58.411,-167.847,-195.374,0
1.466,0.717,0.125,-51.575,-153.381,-211.243,0
1.439,0.727,0.218,-39.978,-131.348,-225.159,0
1.422,0.745,0.295,-26.123,-108.887,-238.647,0
1.399,0.758,0.335,-14.343,-88.257,-252.197,0
1.345,0.773,0.382,-6.775,-71.716,-265.869,0
1.255,0.771,0.391,-3.601,-61.523,-279.968,0
1.157,0.729,0.407,-3.845,-58.35,-292.603,0
1.09,0.675,0.413,-4.395,-59.082,-304.199,0
1.017,0.606,0.403,-3.418,-59.631,-313.66,0
0.946,0.542,0.429,0.671,-56.152,-320.068,0
0.86,0.507,0.449,10.803,-49.316,-322.388,0
0.777,0.466,0.483,23.315,-41.809,-322.876,0
0.708,0.438,0.49,37.17,-34.485,-322.327,0
0.637,0.424,0.495,50.476,-28.809,-318.97,0
0.563,0.373,0.469,60.12,-23.743,-316.772,0
0.464,0.323,0.417,67.2,-21.118,-320.19,0
0.407,0.311,0.351,73.975,-22.156,-318.359,0
0.37,0.26,0.303,77.148,-24.658,-312.378,0
0.318,0.185,0.281,76.111,-24.719,-305.054,0
0.3,-0.3,0.294,73.547,-35.217,-331.238,0
0.529,0.153,0.144,95.825,-30.823,-351.685,0
0.2,0.125,0.203,121.46,-9.216,-274.719,0
0.149,-0.104,0.149,103.088,-1.77,-267.395,0
0.109,-0.154,0.145,103.088,-6.775,-254.7,0
0.138,-0.175,0.084,109.558,-10.132,-240.784,0
0.084,-0.212,0.05,108.765,-10.742,-228.394,0
-0.022,-0.288,0.031,103.821,-12.573,-212.585,0
-0.007,-0.419,0.024,101.318,-18.86,-193.359,0
-0.045,-0.448,-0.016,103.943,-28.564,-179.138,0
-0.086,-0.472,-0.049,108.948,-36.194,-162.17,0
-0.093,-0.513,-0.103,114.441,-45.41,-141.663,0
-0.078,-0.559,-0.155,120.056,-54.932,-124.39,0
-0.029,-0.586,-0.237,123.718,-61.34,-113.281,0
-0.073,-0.571,-0.323,124.817,-59.57,-106.079,0
0.153,-0.64,-0.413,121.399,-55.786,-97.29,0
-0.034,-0.49,-0.537,109.558,-43.64,-93.872,0
-0.014,-0.566,-0.577,84.778,-28.992,-75.623,0
0.051,-0.733,-0.617,55.481,-20.63,-61.035,0
-0.042,-0.712,-0.662,35.034,-12.634,-59.692,0
-0.01,-0.732,-0.69,19.897,-7.69,-44.8,0
-0.045,-0.775,-0.695,-0.854,-2.563,-35.583,0
-0.096,-0.769,-0.658,-16.052,-3.174,-25.757,0
-0.02,-0.831,-0.618,-26.428,-9.277,-6.958,0
0.016,-0.833,-0.631,-34.851,-18.982,6.47,0
0.051,-0.796,-0.638,-42.664,-23.865,22.278,0
0.07,-0.806,-0.64,-54.138,-24.353,38.025,0
0.083,-0.863,-0.604,-67.017,-25.391,46.448,0
0.088,-0.888,-0.578,-75.989,-27.649,45.776,0
0.062,-0.825,-0.557,-81.848,-26.917,43.64,0
0.05,-0.802,-0.51,-91.919,-24.902,47.729,0
0.038,-0.792,-0.46,-104.492,-26.184,56.885,0
0.049,-0.772,-0.398,-115.356,-30.945,68.97,0
0.062,-0.744,-0.325,-125.488,-37.354,80.322,0
0.093,-0.728,-0.246,-133.911,-44.922,89.722,0
0.151,-0.683,-0.182,-139.832,-51.514,95.764,0
0.216,-0.607,-0.128,-143.127,-54.382,101.074,0
0.273,-0.555,-0.081,-147.888,-52.063,105.835,0
0.273,-0.52,-0.03,-152.771,-47.241,109.497,0
0.246,-0.468,0.03,-155.64,-46.387,112.854,0
0.259,-0.399,0.091,-157.715,-52.612,116.638,0
0.295,-0.362,0.175,-161.377,-62.073,120.544,0
0.384,-0.368,0.258,-164.185,-68.481,123.779,0
0.462,-0.362,0.312,-163.513,-66.467,122.864,0
0.543,-0.293,0.343,-156.616,-58.594,119.812,0
0.594,-0.21,0.402,-150.391,-49.866,116.577,0
0.623,-0.135,0.494,-148.376,-42.908,113.525,0
0.68,-0.107,0.582,-150.33,-39.612,110.474,0
0.715,-0.065,0.677,-151.428,-39.185,106.995,0
0.744,-0.044,0.781,-150.879,-42.603,103.638,0
0.837,-0.041,0.878,-148.193,-51.27,100.891,0
0.97,0.008,0.978,-141.785,-58.838,96.436,0
1.084,0.058,1.057,-133.301,-58.35,90.942,0
1.136,0.069,1.113,-124.207,-51.514,85.266,0
1.145,0.072,1.155,-115.723,-41.87,77.82,0
1.137,0.109,1.199,-105.408,-34.668,69.397,0
1.134,0.093,1.221,-95.459,-30.701,60.608,0
1.111,0.047,1.192,-86.609,-26.733,54.138,0
1.025,0.003,1.158,-76.721,-23.437,49.255,0
0.99,0.046,1.146,-64.392,-20.142,42.969,0
1.056,-0.134,1.136,-53.406,-23.743,34.363,0
1.015,0.12,1.059,-40.649,-13.428,37.415,0
0.901,-0.135,1.033,-47.729,-10.498,43.274,0
0.949,-0.138,1.009,-39.795,-7.202,29.236,0
0.846,-0.005,0.954,-28.564,-15.93,20.63,0
0.877,-0.067,0.931,-28.381,-13.733,27.527,0
0.837,-0.219,0.904,-30.151,-11.414,19.653,0
0.804,-0.078,0.88,-18.677,-10.986,10.01,0
0.784,-0.153,0.863,-17.7,-13.062,10.01,0
0.807,-0.196,0.84,-17.944,-13.489,3.54,0
0.805,-0.155,0.81,-11.597,-10.742,1.831,0
0.781,-0.163,0.781,-9.094,-4.15,7.263,0
0.735,-0.198,0.757,-8.362,0.366,11.536,0
0.732,-0.191,0.727,-4.639,1.709,13.55,0
0.724,-0.187,0.694,-0.916,0.61,16.113,0
0.716,-0.191,0.666,0.244,0.427,17.09,0
0.726,-0.198,0.65,1.953,-1.404,13.977,0
0.738,-0.142,0.631,4.028,-2.197,12.146,0
0.741,-0.191,0.619,0.61,-1.465,11.353,0
0.746,-0.198,0.604,-0.854,0.671,6.897,0
0.761,-0.192,0.594,-0.244,5.31,3.357,0
0.747,-0.179,0.591,-1.648,11.414,1.038,0
0.716,-0.18,0.596,-3.906,15.808,3.418,0
0.69,-0.194,0.601,-6.165,17.944,5.676,0
0.667,-0.2,0.6,-5.676,16.052,6.592,0
0.649,-0.186,0.603,-3.723,11.353,6.104,0
0.652,-0.177,0.602,-2.197,5.188,7.996,0
1.594,0.532,0.415,-21.118,-116.394,-90.149,0
1.588,0.565,0.475,-3.662,-107.178,-104.187,0
1.566,0.649,0.509,15.747,-99.182,-118.164,0
1.532,0.711,0.539,31.86,-96.13,-131.409,0
1.495,0.738,0.576,41.687,-97.656,-144.287,0
1.441,0.729,0.61,49.438,-99.609,-155.823,0
1.403,0.692,0.645,57.19,-101.501,-166.199,0
1.396,0.666,0.67,67.383,-101.624,-176.331,0
1.365,0.644,0.699,80.505,-98.267,-185.242,0
1.3,0.659,0.73,95.947,-91.553,-192.139,0
1.234,0.645,0.721,109.924,-83.374,-198.73,0
1.164,0.617,0.702,121.216,-73.059,-206.909,0
1.088,0.622,0.672,132.935,-61.096,-216.064,0
1.007,0.618,0.655,142.639,-49.683,-225.769,0
0.928,0.597,0.63,149.536,-38.635,-233.459,0
0.839,0.563,0.616,153.992,-27.405,-239.319,0
0.754,0.521,0.601,157.166,-17.273,-243.896,0
0.665,0.479,0.576,160.889,-8.301,-247.437,0
0.582,0.449,0.544,166.809,-0.916,-250.977,0
0.518,0.414,0.502,172.791,3.052,-252.197,0
0.474,0.368,0.462,177.551,4.761,-251.16,0
0.436,0.33,0.404,180.786,7.446,-250.916,0
0.365,0.288,0.362,182.495,10.986,-250.488,0
0.287,0.242,0.323,181.702,13.794,-251.221,0
0.215,0.128,0.298,180.847,13.794,-251.587,0
0.232,0.067,0.223,184.265,9.277,-259.46,0
0.198,0.228,0.132,189.636,16.174,-243.713,0
0.071,0.031,0.076,172.363,23.804,-224.67,0
0.02,-0.134,0.001,158.02,25.269,-222.778,0
-0.057,-0.186,-0.085,158.081,23.987,-214.111,0
-0.107,-0.266,-0.178,156.86,23.254,-203.186,0
-0.163,-0.357,-0.28,153.687,20.996,-190.186,0
-0.233,-0.415,-0.358,150.696,15.869,-172.791,0
-0.267,-0.473,-0.429,147.034,8.667,-151.489,0
-0.278,-0.532,-0.509,139.282,-1.587,-132.141,0
-0.234,-0.564,-0.598,127.991,-9.46,-114.014,0
-0.235,-0.563,-0.686,112.122,-13.611,-93.384,0
-0.21,-0.597,-0.737,88.684,-13.977,-69.702,0
-0.145,-0.702,-0.769,61.829,-14.404,-46.265,0
-0.135,-0.767,-0.776,37.781,-15.442,-34.607,0
-0.033,-0.816,-0.744,19.287,-13.062,-33.691,0
0.1,-0.778,-0.73,4.883,-9.46,-34.18,0
0.052,-0.659,-0.704,-12.268,4.456,-20.691,0
0.182,-0.781,-0.653,-38.025,15.259,1.404,0
0.243,-0.84,-0.594,-58.228,24.719,7.08,0
0.278,-0.783,-0.567,-69.824,33.203,10.071,0
0.293,-0.781,-0.508,-82.764,47.119,13.428,0
0.198,-0.802,-0.447,-96.558,53.284,16.357,0
0.093,-0.781,-0.388,-103.882,48.096,23.804,0
0.036,-0.765,-0.355,-109.314,28.992,34.18,0
0.036,-0.744,-0.345,-114.807,1.526,45.349,0
0.024,-0.704,-0.328,-121.643,-26.306,53.101,0
0.028,-0.668,-0.286,-129.028,-52.856,59.143,0
0.048,-0.637,-0.234,-134.949,-77.515,66.223,0
0.083,-0.571,-0.198,-139.587,-97.534,71.533,0
0.142,-0.485,-0.174,-145.203,-111.572,77.637,0
0.173,-0.41,-0.121,-154.785,-118.286,85.022,0
0.215,-0.379,-0.04,-166.87,-118.469,92.163,0
0.269,-0.365,0.03,-176.88,-114.136,97.229,0
0.302,-0.357,0.089,-182.983,-105.042,98.694,0
0.335,-0.311,0.141,-183.228,-94.177,98.511,0
0.346,-0.235,0.203,-180.237,-87.036,98.999,0
0.326,-0.189,0.292,-179.687,-84.167,101.746,0
0.393,-0.093,0.424,-178.528,-85.205,107.361,0
0.425,-0.036,0.579,-177.124,-92.407,110.779,0
0.593,0.077,0.731,-173.462,-105.957,109.009,0
0.771,0.131,0.898,-170.898,-113.098,103.21,0
0.915,0.147,1.053,-169.373,-104.37,90.454,0
1,0.199,1.192,-163.391,-83.74,73.547,0
1.052,0.222,1.313,-157.043,-58.655,54.688,0
1.088,0.209,1.409,-148.987,-36.56,36.56,0
1.077,0.215,1.487,-137.878,-21.545,19.714,0
1.027,0.246,1.561,-124.39,-12.329,5.676,0
0.988,0.233,1.609,-112.305,-12.878,2.93,0
0.988,0.185,1.618,-102.539,-22.339,10.01,0
0.894,0.138,1.601,-91.98,-33.508,19.348,0
0.948,-0.093,1.554,-75.195,-46.692,19.958,0
0.96,0.113,1.448,-51.147,-45.044,22.339,0
0.802,-0.082,1.371,-49.072,-41.077,34.668,0
0.809,-0.286,1.31,-37.842,-40.1,26.733,0
0.792,-0.112,1.195,-13.489,-43.152,8.728,0
0.793,-0.094,1.078,-4.944,-32.227,8.545,0
0.733,-0.261,1.016,-9.277,-10.01,6.653,0
0.666,-0.229,0.959,-5.615,1.526,-4.761,0
0.634,-0.194,0.913,-2.197,10.01,-12.634,0
0.632,-0.22,0.882,-6.042,17.029,-15.32,0
0.586,-0.236,0.858,-10.132,21.606,-14.587,0
0.577,-0.279,0.849,-11.108,23.437,-14.771,0
0.565,-0.224,0.827,-8.362,20.325,-11.108,0
0.551,-0.265,0.818,-8.423,18.005,-2.563,0
0.545,-0.301,0.809,-5.371,12.207,0.671,0
0.56,-0.243,0.776,3.418,3.052,4.517,0
0.582,-0.236,0.748,7.507,-2.93,9.521,0
0.595,-0.231,0.723,8.972,-4.028,12.268,0
0.612,-0.222,0.701,10.132,-2.808,11.902,0
0.612,-0.232,0.685,10.315,0.732,7.507,0
0.609,-0.188,0.66,10.376,5.554,1.77,0
0.625,-0.228,0.661,7.202,11.047,-1.709,0
0.606,-0.185,0.655,3.235,17.822,-5.31,0
0.585,-0.211,0.663,-2.197,24.048,-4.639,0
0.554,-0.236,0.682,-6.592,27.527,-5.188,0
0.561,-0.275,0.701,-6.47,26.367,-5.371,0
0.525,-0.265,0.703,-2.991,19.531,-6.287,0
0.52,-0.182,0.711,0.183,13.489,-1.465,0
0.515,-0.225,0.712,-4.089,5.188,6.287,0
0.55,-0.291,0.715,-4.395,-4.7,6.348,0
0.583,-0.217,0.705,3.174,-12.512,4.089,0
0.594,-0.17,0.703,4.578,-15.015,4.7,0
0.627,-0.176,0.7,0.488,-11.841,9.827,0
0.641,-0.233,0.708,-3.906,-5.127,9.888,0
0.624,-0.218,0.708,-2.625,0.549,3.723,0
0.613,-0.202,0.71,0.61,6.409,-2.197,0
0.595,-0.167,0.711,1.038,9.949,-5.31,0
0.593,-0.14,0.707,-3.052,10.315,-3.601,0
0.584,-0.177,0.716,-10.132,11.902,-0.61,0
0.568,-0.207,0.724,-14.16,9.46,-0.122,0
0.563,-0.191,0.723,-13.489,5.31,0.488,0
0.566,-0.229,0.735,-12.695,1.77,0.854,0
0.579,-0.236,0.741,-9.888,-2.014,-0.183,0
1.475,0.867,-0.204,-9.338,-156.86,-89.783,0
1.535,0.871,-0.106,-10.498,-160.645,-106.567,0
1.591,0.87,-0.005,-9.705,-156.86,-124.084,0
1.609,0.869,0.077,-7.08,-146.606,-142.883,0
1.581,0.839,0.166,-3.479,-134.216,-163.147,0
1.555,0.809,0.214,2.136,-121.948,-182.739,0
1.515,0.808,0.245,7.507,-110.596,-201.599,0
1.484,0.826,0.244,12.207,-98.755,-219.299,0
1.419,0.837,0.261,15.808,-87.097,-235.718,0
1.35,0.828,0.292,19.409,-77.576,-250.427,0
1.291,0.794,0.326,23.621,-69.763,-262.756,0
1.217,0.748,0.37,30.334,-63.354,-272.949,0
1.106,0.699,0.389,39.368,-59.326,-281.738,0
1.008,0.631,0.43,49.622,-58.533,-289.978,0
0.951,0.593,0.461,61.34,-61.584,-297.363,0
0.879,0.606,0.454,76.05,-66.772,-301.27,0
0.805,0.578,0.442,88.318,-71.35,-302.49,0
0.753,0.541,0.422,96.558,-73.73,-303.345,0
0.69,0.479,0.42,103.76,-70.801,-303.65,0
0.616,0.449,0.401,108.948,-61.707,-308.594,0
0.516,0.4,0.388,113.098,-49.5,-310.059,0
0.447,0.312,0.361,116.638,-36.621,-313.293,0
0.342,0.304,0.329,122.986,-24.353,-318.604,0
0.257,0.268,0.306,127.502,-17.456,-316.711,0
0.184,0.144,0.296,129.944,-16.846,-314.148,0
0.189,0.003,0.27,135.803,-24.231,-316.162,0
0.238,0.087,0.201,148.804,-26.489,-304.993,0
0.177,0.088,0.164,150.757,-17.7,-275.024,0
0.131,-0.036,0.126,137.024,-8.972,-257.874,0
0.141,-0.106,0.077,127.869,-4.822,-243.652,0
0.125,-0.149,0.022,123.23,-1.038,-228.333,0
0.089,-0.248,-0.006,118.225,3.235,-214.172,0
0.007,-0.316,-0.041,114.563,5.981,-202.026,0
-0.004,-0.368,-0.07,113.953,5.737,-188.965,0
0.006,-0.427,-0.11,113.037,1.221,-176.392,0
-0.023,-0.445,-0.161,112.061,-4.15,-164.368,0
-0.06,-0.439,-0.215,108.215,-8.118,-149.658,0
-0.059,-0.477,-0.273,99.915,-11.902,-129.944,0
-0.048,-0.568,-0.336,89.417,-17.761,-112.122,0
-0.082,-0.58,-0.386,80.139,-24.048,-103.027,0
0.064,-0.668,-0.421,72.021,-27.71,-95.947,0
0.067,-0.625,-0.462,63.538,-24.841,-92.102,0
0.015,-0.574,-0.473,49.194,-16.785,-76.843,0
0.061,-0.694,-0.484,28.076,-13.245,-57.007,0
0.082,-0.817,-0.49,13.428,-10.62,-44.983,0
0.103,-0.843,-0.52,6.409,-8.911,-37.109,0
0.124,-0.839,-0.497,1.343,-2.197,-31.128,0
0.136,-0.82,-0.487,-5.92,7.935,-18.982,0
0.224,-0.911,-0.483,-17.029,14.893,-8.728,0
0.223,-0.896,-0.487,-24.536,18.982,-0.061,0
0.239,-0.901,-0.477,-30.823,23.437,14.465,0
0.226,-0.926,-0.469,-38.574,23.01,27.161,0
0.211,-0.917,-0.465,-46.448,18.311,36.133,0
0.205,-0.909,-0.45,-56.824,11.658,42.664,0
0.183,-0.912,-0.433,-69.946,2.869,47.974,0
0.191,-0.954,-0.403,-83.191,-8.606,48.34,0
0.159,-0.939,-0.371,-92.163,-23.071,44.922,0
0.145,-0.892,-0.337,-97.046,-39.124,46.936,0
0.135,-0.859,-0.305,-103.455,-54.688,51.636,0
0.156,-0.834,-0.274,-109.619,-70.007,57.739,0
0.193,-0.807,-0.242,-114.319,-83.679,62.012,0
0.206,-0.759,-0.218,-118.591,-93.201,62.866,0
0.247,-0.688,-0.203,-123.413,-97.046,62.195,0
0.277,-0.596,-0.18,-131.47,-92.102,62.195,0
0.273,-0.558,-0.141,-144.226,-79.712,64.758,0
0.244,-0.542,-0.07,-158.203,-67.383,64.331,0
0.215,-0.507,-0.005,-167.725,-57.922,62.988,0
0.191,-0.485,0.073,-173.95,-51.514,65.491,0
0.181,-0.474,0.149,-176.575,-50.171,68.848,0
0.219,-0.427,0.236,-174.072,-54.321,73.608,0
0.287,-0.372,0.328,-167.969,-59.387,81.299,0
0.355,-0.307,0.421,-162.109,-62.073,88.196,0
0.406,-0.227,0.515,-155.518,-64.209,93.384,0
0.436,-0.108,0.639,-149.353,-70.129,98.022,0
0.493,-0.01,0.783,-146.301,-84.229,100.891,0
0.651,0.042,0.945,-146.179,-104.248,100.83,0
0.839,0.12,1.084,-143.677,-115.967,98.267,0
0.964,0.161,1.213,-140.686,-114.075,92.773,0
1.06,0.164,1.302,-136.78,-103.21,84.534,0
1.127,0.14,1.348,-128.357,-89.233,72.144,0
1.123,0.133,1.373,-117.676,-71.899,55.969,0
1.08,0.104,1.402,-106.873,-51.086,38.818,0
1.021,0.044,1.392,-95.886,-31.372,22.888,0
0.938,-0.004,1.355,-82.947,-14.16,9.705,0
0.856,-0.045,1.307,-69.946,-1.77,-0.183,0
0.771,-0.022,1.279,-59.143,6.287,-4.089,0
0.689,-0.083,1.254,-54.321,6.592,-2.197,0
0.634,-0.172,1.226,-48.34,-2.197,-0.671,0
0.711,-0.243,1.165,-37.842,-13.611,3.235,0
0.695,-0.373,1.106,-27.283,-22.461,5.615,0
0.591,-0.168,1.017,-14.404,-23.926,3.418,0
0.686,-0.321,0.996,-13.367,-22.4,11.719,0
0.646,-0.331,0.933,-13.062,-17.456,9.827,0
0.658,-0.311,0.897,-9.766,-15.747,5.981,0
0.654,-0.296,0.831,-8.179,-13.489,8.667,0
0.672,-0.276,0.794,-11.475,7.019,10.62,0
0.613,-0.367,0.791,-14.404,19.165,7.141,0
0.588,-0.316,0.796,-6.409,21.667,-3.967,0
0.598,-0.236,0.757,-1.404,19.592,-8.789,0
0.635,-0.306,0.744,-4.395,24.292,-9.521,0
0.598,-0.348,0.751,-6.104,24.78,-16.602,0
0.597,-0.255,0.743,-1.038,22.4,-18.005,0
0.63,-0.271,0.712,-1.709,23.193,-10.803,0
0.599,-0.281,0.703,-5.005,27.649,-5.798,0
0.57,-0.333,0.697,-5.676,27.1,-4.15,0
0.571,-0.291,0.682,-1.648,23.071,-4.211,0
0.569,-0.282,0.657,0.183,19.348,-2.319,0
0.568,-0.295,0.645,-1.343,16.541,-1.16,0
0.565,-0.303,0.636,-1.343,13.855,-0.122,0
0.567,-0.288,0.631,-1.343,11.841,0.793,0
0.562,-0.293,0.632,-2.686,11.414,2.625,0
0.551,-0.292,0.623,-4.089,10.559,3.662,0
0.544,-0.281,0.625,-4.944,8.667,5.371,0
0.542,-0.286,0.63,-6.348,5.249,6.348,0
0.561,-0.282,0.643,-7.385,0.549,6.653,0
0.569,-0.288,0.651,-7.996,-2.502,7.263,0
0.581,-0.274,0.66,-8.24,-3.113,7.385,0
0.586,-0.278,0.66,-8.85,-2.686,7.08,0
0.606,-0.285,0.657,-9.583,-1.648,5.676,0
1.788,0.418,0.389,-1.77,-173.218,-96.252,0
1.855,0.423,0.405,22.156,-173.462,-99.121,0
1.889,0.491,0.389,47.913,-166.748,-107.056,0
1.873,0.588,0.403,66.772,-154.236,-119.873,0
1.811,0.647,0.435,76.05,-139.465,-137.146,0
1.724,0.656,0.461,76.294,-124.939,-158.875,0
1.624,0.633,0.47,72.266,-108.704,-181.885,0
1.51,0.592,0.472,67.322,-91.431,-203.735,0
1.377,0.559,0.494,65.674,-75.317,-221.802,0
1.261,0.52,0.522,68.176,-62.622,-234.863,0
1.16,0.482,0.571,74.829,-53.345,-242.981,0
1.085,0.457,0.603,85.815,-44.739,-245.3,0
1.016,0.456,0.607,100.464,-39.246,-244.507,0
0.93,0.455,0.579,114.929,-37.17,-245.422,0
0.891,0.458,0.546,128.662,-36.255,-249.329,0
0.816,0.475,0.511,142.151,-34.851,-254.456,0
0.711,0.455,0.467,151.917,-31.677,-260.742,0
0.615,0.446,0.433,155.64,-26.306,-269.348,0
0.521,0.406,0.374,156.616,-18.005,-273.804,0
0.398,0.338,0.343,153.931,-7.935,-278.625,0
0.292,0.29,0.333,153.015,3.54,-280.334,0
0.183,0.263,0.312,153.32,15.381,-279.297,0
0.122,0.2,0.292,152.71,23.621,-274.231,0
0.054,0.172,0.242,153.259,29.968,-264.832,0
-0.084,0.109,0.181,153.259,35.278,-248.718,0
-0.125,-0.088,0.125,154.236,29.602,-229.309,0
-0.146,-0.197,0.027,164.856,13.55,-223.816,0
-0.212,-0.123,-0.076,183.105,7.141,-216.675,0
-0.235,-0.172,-0.183,188.965,-0.244,-201.843,0
-0.262,-0.19,-0.286,186.035,-8.789,-183.716,0
-0.281,-0.196,-0.397,174.927,-12.878,-160.095,0
-0.229,-0.277,-0.495,153.992,-12.268,-136.78,0
-0.194,-0.383,-0.571,129.944,-10.864,-119.995,0
-0.178,-0.409,-0.632,108.215,-7.996,-106.628,0
-0.18,-0.439,-0.682,83.191,-1.953,-91.98,0
-0.161,-0.556,-0.679,53.345,2.93,-78.674,0
-0.077,-0.649,-0.65,28.076,2.991,-68.787,0
-0.074,-0.682,-0.624,6.958,6.836,-59.937,0
-0.079,-0.728,-0.503,-12.512,15.747,-36.56,0
0.028,-0.828,-0.378,-25.757,19.043,-11.108,0
0.18,-0.897,-0.334,-23.071,13.184,5.615,0
0.302,-0.824,-0.318,-15.076,3.54,7.69,0
0.393,-0.737,-0.295,-13.611,4.089,12.085,0
0.444,-0.751,-0.258,-24.78,13.062,20.691,0
0.492,-0.791,-0.215,-36.987,23.01,30.701,0
0.512,-0.809,-0.191,-44.189,27.893,36.682,0
0.54,-0.838,-0.187,-48.279,30.457,37.964,0
0.499,-0.88,-0.194,-53.345,31.067,32.227,0
0.425,-0.87,-0.209,-56.458,23.987,27.161,0
0.371,-0.869,-0.22,-60.181,10.376,26.917,0
0.327,-0.863,-0.224,-66.284,-7.507,27.893,0
0.314,-0.887,-0.228,-71.594,-30.701,30.579,0
0.323,-0.847,-0.214,-74.036,-56.03,31.067,0
0.358,-0.799,-0.198,-77.881,-75.989,30.579,0
0.387,-0.762,-0.181,-86.243,-85.754,30.09,0
0.418,-0.724,-0.16,-96.069,-87.402,32.166,0
0.428,-0.706,-0.13,-106.262,-83.984,34.363,0
0.416,-0.692,-0.1,-115.173,-78.43,32.654,0
0.413,-0.635,-0.063,-122.986,-70.435,25.879,0
0.413,-0.593,-0.027,-131.714,-60.059,19.226,0
0.391,-0.538,0.008,-141.968,-49.805,12.634,0
0.355,-0.513,0.076,-153.076,-41.26,9.338,0
0.311,-0.506,0.132,-163.33,-36.499,7.69,0
0.321,-0.518,0.182,-169.495,-35.156,10.864,0
0.303,-0.54,0.221,-171.143,-34.241,17.212,0
0.301,-0.528,0.25,-167.053,-36.011,25.085,0
0.307,-0.498,0.275,-159.79,-39.917,32.898,0
0.32,-0.442,0.306,-153.687,-43.335,41.382,0
0.325,-0.37,0.328,-149.658,-46.387,50.11,0
0.325,-0.318,0.347,-149.353,-51.514,58.105,0
0.307,-0.242,0.356,-150.757,-61.401,63.293,0
0.323,-0.26,0.435,-154.297,-76.233,65.613,0
0.402,-0.197,0.564,-157.837,-92.957,59.631,0
0.405,-0.048,0.668,-157.349,-98.816,68.42,0
0.504,-0.172,0.793,-163.513,-105.286,88.074,0
0.539,-0.224,0.912,-158.142,-109.985,91.431,0
0.676,-0.074,1.023,-135.01,-113.159,87.036,0
0.778,0.122,1.096,-118.469,-112.671,92.529,0
0.889,0.083,1.142,-110.657,-96.252,107.483,0
0.867,0.176,1.229,-102.234,-82.092,96.619,0
0.808,0.237,1.33,-96.863,-84.717,77.942,0
0.869,0.239,1.385,-96.436,-92.896,59.143,0
0.893,0.288,1.415,-96.863,-90.637,46.997,0
0.906,0.228,1.455,-101.074,-77.454,35.828,0
0.838,0.17,1.508,-100.098,-61.829,22.461,0
0.834,0.089,1.506,-88.867,-45.532,9.094,0
0.809,0.088,1.486,-70.74,-25.452,-1.77,0
0.762,-0.024,1.416,-54.565,-9.949,-3.723,0
0.685,-0.082,1.376,-36.682,6.897,-11.78,0
0.59,-0.017,1.284,-20.569,6.958,-17.151,0
0.565,-0.03,1.204,-13.062,12.085,-15.32,0
0.522,-0.101,1.146,-13.977,17.822,-13.55,0
0.489,-0.172,1.111,-13.306,17.395,-12.878,0
0.475,-0.193,1.063,-7.69,12.085,-14.16,0
0.457,-0.207,1.009,-1.709,5.554,-13.306,0
0.48,-0.19,0.966,3.113,5.554,-10.925,0
0.486,-0.267,0.941,5.371,7.08,-7.446,0
0.495,-0.222,0.903,9.583,6.47,-7.751,0
0.511,-0.224,0.863,11.658,10.864,-4.395,0
0.49,-0.208,0.835,8.85,15.564,-2.441,0
0.525,-0.205,0.79,6.47,18.433,1.892,0
0.487,-0.186,0.782,2.93,21.362,3.479,0
0.485,-0.215,0.793,-0.061,18.799,3.113,0
0.494,-0.208,0.778,1.16,14.16,0.61,0
0.509,-0.21,0.767,3.418,9.888,-1.587,0
0.506,-0.201,0.766,4.883,8.362,-2.441,0
0.521,-0.222,0.76,5.493,8.118,-1.77,0
0.538,-0.237,0.749,7.629,8.911,-2.625,0
0.536,-0.219,0.739,10.498,9.888,-4.028,0
0.535,-0.21,0.729,11.353,12.329,-4.456,0
0.533,-0.191,0.718,9.949,13.977,-3.357,0
0.526,-0.184,0.717,5.981,15.32,0,0
0.512,-0.187,0.724,1.099,16.235,1.404,0
0.503,-0.186,0.726,-2.014,15.32,1.038,0
0.5,-0.191,0.734,-3.479,12.817,-0.305,0
0.502,-0.193,0.745,-3.662,9.399,-2.075,0
0.507,-0.196,0.748,-2.869,5.554,-4.028,0
0.513,-0.186,0.746,-1.77,2.136,-4.578,0
0.518,-0.189,0.747,-1.77,0.854,-3.174,0
1.686,0.529,0.399,-44.617,-172.058,-148.499,0
1.67,0.548,0.427,-20.203,-167.053,-158.264,0
1.611,0.549,0.46,0.183,-159.912,-166.809,0
1.565,0.559,0.483,17.334,-152.466,-175.659,0
1.517,0.599,0.499,32.532,-143.066,-186.218,0
1.429,0.624,0.524,44.8,-131.348,-196.594,0
1.33,0.608,0.549,53.284,-119.263,-205.322,0
1.25,0.583,0.571,60.913,-108.276,-213.501,0
1.189,0.572,0.593,71.106,-98.877,-220.154,0
1.109,0.564,0.585,82.642,-90.393,-224.609,0
1.008,0.536,0.585,92.651,-84.473,-228.394,0
0.918,0.518,0.592,102.844,-82.458,-231.079,0
0.854,0.481,0.583,111.328,-83.069,-233.459,0
0.818,0.455,0.566,119.568,-83.191,-235.596,0
0.763,0.438,0.512,129.395,-80.75,-236.206,0
0.679,0.388,0.475,136.963,-76.965,-236.938,0
0.614,0.337,0.417,142.639,-71.96,-238.342,0
0.554,0.281,0.359,147.217,-64.697,-240.295,0
0.458,0.263,0.315,149.963,-55.115,-243.103,0
0.372,0.229,0.296,151.489,-45.593,-240.784,0
0.271,0.15,0.271,150.269,-39.246,-237.061,0
0.2,-0.163,0.293,152.588,-40.771,-241.516,0
0.27,-0.032,0.196,170.41,-51.88,-265.381,0
0.204,0.148,0.129,188.049,-43.884,-231.384,0
0.095,-0.113,0.062,169.25,-40.588,-210.937,0
0.091,-0.166,-0.008,161.621,-39.001,-201.66,0
0.034,-0.189,-0.084,158.142,-38.513,-187.988,0
0.055,-0.271,-0.122,150.024,-33.752,-176.636,0
-0.032,-0.318,-0.169,142.09,-28.503,-162.964,0
-0.016,-0.445,-0.205,134.827,-24.292,-149.048,0
-0.049,-0.482,-0.258,132.996,-22.339,-136.719,0
-0.036,-0.551,-0.297,131.042,-20.63,-121.338,0
-0.042,-0.578,-0.349,128.174,-18.188,-108.032,0
-0.043,-0.578,-0.415,122.803,-14.526,-93.933,0
-0.06,-0.622,-0.463,111.755,-10.742,-79.346,0
-0.061,-0.67,-0.502,97.778,-8.301,-72.021,0
-0.021,-0.678,-0.543,82.642,-5.615,-66.895,0
0.12,-0.732,-0.598,64.941,-2.258,-61.096,0
-0.014,-0.632,-0.635,44.8,9.888,-56.885,0
0.05,-0.771,-0.618,18.433,16.602,-37.292,0
0.115,-0.887,-0.61,-3.54,18.005,-28.259,0
0.093,-0.882,-0.596,-16.663,16.724,-24.536,0
0.198,-0.926,-0.554,-25.757,20.752,-15.198,0
0.217,-0.946,-0.524,-36.499,21.484,-11.475,0
0.251,-0.904,-0.504,-43.396,22.156,-2.869,0
0.27,-0.879,-0.49,-53.101,23.499,10.315,0
0.297,-0.913,-0.459,-66.589,25.696,24.048,0
0.279,-0.953,-0.413,-79.468,28.137,31.25,0
0.234,-0.943,-0.369,-86.792,28.015,33.386,0
0.21,-0.949,-0.328,-90.027,21.545,37.109,0
0.198,-0.947,-0.292,-90.881,9.155,38.513,0
0.196,-0.882,-0.263,-89.478,-4.578,38.696,0
0.196,-0.797,-0.232,-90.637,-17.517,43.03,0
0.198,-0.76,-0.193,-97.29,-30.334,51.27,0
0.226,-0.726,-0.167,-104.98,-43.335,58.167,0
0.253,-0.673,-0.148,-112.122,-54.26,60.12,0
0.255,-0.603,-0.126,-119.568,-60.364,59.692,0
0.267,-0.541,-0.098,-129.15,-63.232,59.143,0
0.246,-0.485,-0.071,-140.686,-64.148,58.228,0
0.223,-0.448,0,-153.748,-64.27,58.289,0
0.232,-0.459,0.079,-165.771,-63.904,60.181,0
0.248,-0.467,0.113,-170.959,-63.538,63.416,0
0.29,-0.44,0.127,-168.518,-63.171,66.284,0
0.322,-0.347,0.169,-163.025,-61.279,69.336,0
0.327,-0.284,0.238,-160.339,-58.472,74.28,0
0.346,-0.261,0.298,-161.621,-57.739,80.2,0
0.34,-0.191,0.365,-160.95,-62.988,84.412,0
0.382,-0.099,0.467,-158.447,-79.102,86.304,0
0.49,-0.041,0.58,-157.959,-100.403,87.708,0
0.654,0.036,0.73,-158.691,-115.356,88.257,0
0.839,0.141,0.897,-158.569,-119.324,87.646,0
0.958,0.199,1.061,-160.034,-114.441,83.008,0
1.024,0.228,1.227,-160.706,-104.065,73.303,0
1.011,0.24,1.385,-156.86,-93.75,60.73,0
1.003,0.182,1.498,-149.597,-92.529,47.974,0
1.027,0.061,1.562,-137.817,-94.727,37.109,0
1.077,0.028,1.594,-117.615,-93.933,27.588,0
1.105,0.032,1.577,-96.191,-83.679,21.362,0
1.08,-0.044,1.532,-80.017,-62.195,10.315,0
1.015,-0.019,1.465,-63.599,-37.598,-2.075,0
0.845,0.036,1.395,-52.063,-5.249,-11.536,0
0.954,-0.259,1.368,-44.922,24.841,-22.949,0
0.755,-0.032,1.256,-32.837,47.852,-36.133,0
0.604,-0.185,1.183,-36.682,57.617,-35.217,0
0.582,-0.225,1.143,-31.494,63.416,-38.574,0
0.495,-0.235,1.086,-26.001,47.668,-35.767,0
0.498,-0.238,1.005,-21.362,35.4,-27.466,0
0.499,-0.284,0.984,-18.311,35.217,-14.832,0
0.474,-0.366,0.946,-14.526,22.461,-10.62,0
0.518,-0.331,0.909,0,12.207,-11.658,0
0.536,-0.287,0.852,8.728,6.226,-7.446,0
0.563,-0.298,0.819,12.268,7.324,-2.38,0
0.563,-0.281,0.778,14.709,9.155,0.244,0
0.576,-0.261,0.743,16.663,11.963,1.953,0
0.577,-0.242,0.709,15.808,14.832,1.221,0
0.567,-0.227,0.69,13.428,19.897,1.465,0
0.568,-0.253,0.675,9.033,22.766,-0.488,0
0.545,-0.243,0.666,6.409,22.766,-3.967,0
0.53,-0.266,0.669,3.113,22.156,-5.188,0
0.506,-0.293,0.677,-0.122,19.653,-5.127,0
0.5,-0.313,0.676,-0.549,13.855,-3.967,0
0.518,-0.311,0.674,1.038,6.836,-0.244,0
0.531,-0.312,0.671,2.197,1.404,4.7,0
0.551,-0.307,0.664,2.991,-2.258,8.911,0
0.552,-0.302,0.661,3.479,-4.089,10.986,0
0.567,-0.286,0.66,3.967,-5.615,10.864,0
0.581,-0.27,0.663,3.906,-7.019,9.46,0
0.585,-0.251,0.663,2.625,-7.202,7.935,0
0.581,-0.252,0.68,-0.488,-7.019,6.836,0
0.589,-0.253,0.684,-3.113,-7.507,6.226,0
0.594,-0.256,0.684,-4.761,-7.446,5.371,0
0.613,-0.288,0.699,-5.798,-6.653,5.005,0
0.609,-0.26,0.69,-5.31,-5.615,3.235,0
0.62,-0.272,0.692,-5.31,-2.625,2.869,0
0.604,-0.278,0.694,-5.981,-2.197,2.197,0
0.611,-0.266,0.686,-5.493,-1.709,1.831,0
0.611,-0.267,0.69,-4.822,0.366,2.014,0
0.603,-0.263,0.694,-3.906,0.183,1.526,0
0.611,-0.247,0.694,-1.953,-1.099,1.465,0
1.653,0.464,0.447,-30.884,-160.278,-69.519,0
1.682,0.445,0.492,-20.874,-150.635,-88.806,0
1.686,0.493,0.542,-5.127,-139.709,-105.225,0
1.654,0.561,0.583,12.024,-127.686,-120.972,0
1.585,0.601,0.648,25.085,-115.906,-137.268,0
1.502,0.596,0.7,35.339,-105.103,-155.151,0
1.404,0.58,0.74,44.983,-97.168,-172.668,0
1.305,0.596,0.758,57.312,-92.102,-187.988,0
1.234,0.603,0.747,70.618,-92.407,-201.172,0
1.203,0.598,0.735,82.703,-96.069,-212.219,0
1.193,0.559,0.729,92.529,-94.482,-221.497,0
1.151,0.515,0.739,103.088,-84.473,-230.103,0
1.085,0.501,0.723,117.676,-70.984,-237.854,0
0.989,0.474,0.702,134.216,-58.105,-245.239,0
0.866,0.483,0.653,150.879,-48.096,-250.916,0
0.737,0.458,0.612,166.138,-43.64,-255.432,0
0.643,0.391,0.557,178.162,-44.128,-259.705,0
0.548,0.38,0.51,189.087,-45.959,-263.184,0
0.478,0.368,0.457,196.899,-46.021,-263.184,0
0.418,0.333,0.389,197.327,-43.823,-262.695,0
0.344,0.285,0.314,193.237,-40.283,-260.986,0
0.307,0.207,0.27,184.875,-37.598,-257.324,0
0.279,0.135,0.217,175.476,-32.959,-251.587,0
0.194,0.087,0.145,165.71,-24.048,-243.774,0
0.148,-0.083,0.13,156.555,-13.245,-227.478,0
0.149,-0.285,0.089,153.625,-13.794,-226.135,0
0.074,-0.137,0.027,166.382,-8.179,-220.52,0
0.082,-0.217,-0.004,164.917,-2.808,-207.703,0
0.031,-0.241,-0.054,159.058,0.305,-195.618,0
0.04,-0.275,-0.092,148.56,3.967,-179.199,0
-0.022,-0.353,-0.122,134.521,7.568,-164.612,0
-0.064,-0.427,-0.145,122.314,10.62,-149.475,0
-0.05,-0.544,-0.153,114.807,10.193,-135.742,0
-0.032,-0.555,-0.197,113.708,3.906,-126.587,0
-0.032,-0.522,-0.252,111.267,0.183,-115.112,0
-0.05,-0.542,-0.301,99.548,-1.038,-99.976,0
-0.012,-0.616,-0.345,83.496,-0.793,-83.496,0
-0.003,-0.676,-0.395,67.932,0.916,-72.754,0
0.046,-0.708,-0.415,54.443,5.798,-66.406,0
0.099,-0.721,-0.427,39.429,7.874,-59.326,0
0.006,-0.63,-0.417,21.301,10.498,-46.448,0
0.119,-0.876,-0.379,1.77,8.972,-24.719,0
0.153,-0.902,-0.388,-5.432,4.761,-21.362,0
0.201,-0.899,-0.405,-6.226,-1.404,-13.672,0
0.317,-0.917,-0.385,-7.751,0,-1.953,0
0.379,-0.972,-0.396,-13.367,9.216,3.479,0
0.365,-0.905,-0.418,-16.357,22.217,6.47,0
0.328,-0.879,-0.436,-22.461,33.875,17.7,0
0.265,-0.888,-0.442,-34.485,42.053,28.442,0
0.203,-0.95,-0.441,-47.729,44.067,33.63,0
0.116,-0.929,-0.428,-58.533,38.269,29.297,0
0.084,-0.929,-0.411,-65.979,25.879,29.968,0
0.07,-0.903,-0.391,-74.524,9.766,30.029,0
0.05,-0.856,-0.358,-82.275,-6.775,35.339,0
0.059,-0.821,-0.299,-90.576,-23.499,47.485,0
0.124,-0.806,-0.241,-97.778,-39.734,61.523,0
0.216,-0.777,-0.208,-101.99,-51.758,70.862,0
0.283,-0.72,-0.172,-104.309,-54.321,75.684,0
0.305,-0.661,-0.146,-108.093,-51.575,79.041,0
0.347,-0.577,-0.127,-114.502,-46.448,81.604,0
0.33,-0.532,-0.097,-124.695,-39.063,84.9,0
0.317,-0.505,-0.076,-136.963,-35.278,81.177,0
0.289,-0.44,-0.055,-148.315,-35.706,75.562,0
0.262,-0.402,-0.028,-161.438,-39.551,69.946,0
0.256,-0.366,0.063,-175.171,-47.058,63.049,0
0.275,-0.375,0.221,-186.584,-53.894,59.57,0
0.298,-0.422,0.317,-189.758,-59.326,62.866,0
0.376,-0.446,0.36,-182.434,-66.162,70.251,0
0.39,-0.386,0.415,-169.067,-71.411,78.125,0
0.4,-0.284,0.506,-155.884,-76.965,84.961,0
0.454,-0.172,0.599,-148.071,-86.731,91.919,0
0.551,-0.087,0.681,-145.691,-98.877,96.558,0
0.657,0.027,0.781,-148.01,-106.689,96.924,0
0.744,0.121,0.905,-155.884,-106.628,93.14,0
0.78,0.062,1.026,-164.368,-102.356,85.266,0
0.858,0.041,1.152,-162.964,-96.069,65.369,0
0.878,0.189,1.25,-152.344,-93.445,50.781,0
0.954,0.135,1.352,-145.142,-78.918,49.072,0
0.955,0.088,1.4,-136.108,-59.631,36.438,0
0.941,0.159,1.432,-118.53,-44.617,21.912,0
0.923,0.176,1.444,-105.957,-32.349,15.564,0
0.888,0.151,1.441,-97.961,-18.005,14.954,0
0.801,0.126,1.426,-90.088,-6.531,13,0
0.782,0.047,1.409,-80.261,-1.282,11.597,0
0.676,-0.018,1.371,-68.726,-6.531,12.695,0
0.592,-0.011,1.306,-54.016,-21.606,9.888,0
0.614,-0.01,1.255,-37.903,-32.043,18.066,0
0.618,-0.143,1.183,-33.386,-40.283,20.691,0
0.598,-0.117,1.125,-23.376,-48.34,17.395,0
0.608,-0.069,1.068,-16.296,-48.95,18.311,0
0.625,-0.157,1.027,-18.005,-36.255,18.066,0
0.624,-0.179,0.985,-17.212,-20.569,9.277,0
0.601,-0.171,0.964,-13.367,-5.005,0.488,0
0.556,-0.158,0.946,-12.085,8.362,-6.226,0
0.525,-0.16,0.926,-13.062,20.325,-9.949,0
0.489,-0.215,0.924,-13.977,26.306,-12.939,0
0.47,-0.224,0.904,-10.132,23.804,-18.005,0
0.477,-0.173,0.885,-6.287,18.616,-20.63,0
0.495,-0.166,0.876,-6.653,15.869,-13.916,0
0.48,-0.215,0.863,-8.606,10.254,-4.089,0
0.517,-0.233,0.856,-6.165,6.165,1.465,0
0.538,-0.221,0.824,-1.709,2.563,4.456,0
0.548,-0.195,0.798,1.526,2.869,6.714,0
0.561,-0.219,0.775,2.319,4.15,6.653,0
0.558,-0.19,0.761,3.479,6.653,3.723,0
0.55,-0.208,0.752,2.075,9.827,1.465,0
0.542,-0.213,0.741,0.732,12.329,-1.526,0
0.533,-0.198,0.743,0.122,14.221,-3.845,0
0.509,-0.174,0.748,-1.526,14.282,-3.967,0
0.507,-0.194,0.752,-5.31,12.39,-2.075,0
0.504,-0.213,0.752,-6.775,8.545,0.244,0
0.51,-0.224,0.757,-5.249,3.967,1.587,0
0.547,-0.227,0.76,-1.709,-0.854,1.648,0
0.545,-0.203,0.746,1.831,-3.601,1.526,0
0.574,-0.191,0.748,2.869,-2.075,2.258,0
0.572,-0.202,0.74,1.709,0.183,1.16,0
0.583,-0.189,0.735,2.319,4.028,-1.038,0
0.582,-0.172,0.721,1.099,6.958,-3.54,0
0.576,-0.17,0.725,-2.319,10.254,-5.554,0
1.755,0.76,0.175,64.88,-168.518,-111.572,0
1.806,0.774,0.245,66.101,-166.077,-132.996,0
1.841,0.804,0.308,66.528,-152.893,-155.029,0
1.853,0.83,0.37,65.796,-129.7,-176.819,0
1.772,0.833,0.386,63.843,-101.257,-199.463,0
1.618,0.769,0.399,58.777,-76.233,-225.586,0
1.476,0.712,0.398,54.077,-57.312,-251.709,0
1.316,0.659,0.412,52.185,-42.603,-274.109,0
1.17,0.596,0.404,51.819,-31.555,-290.955,0
1.04,0.541,0.374,53.223,-24.17,-303.223,0
0.918,0.499,0.388,56.702,-19.47,-311.768,0
0.842,0.478,0.408,61.584,-15.259,-317.81,0
0.776,0.479,0.411,67.505,-12.817,-321.838,0
0.697,0.461,0.4,71.899,-13.123,-323.73,0
0.627,0.404,0.379,74.707,-14.404,-323.914,0
0.555,0.344,0.382,77.454,-16.052,-324.036,0
0.466,0.293,0.394,82.153,-15.015,-321.777,0
0.427,0.227,0.401,89.172,-13.306,-316.04,0
0.386,0.177,0.379,96.558,-15.137,-312.683,0
0.343,0.156,0.392,105.225,-16.418,-307.129,0
0.305,0.134,0.38,109.741,-13.916,-299.316,0
0.25,0.089,0.364,110.901,-10.559,-290.039,0
0.197,0.041,0.344,109.985,-8.24,-279.236,0
0.079,0.059,0.313,109.131,-7.446,-265.015,0
0.092,-0.245,0.318,107.91,-16.235,-245.117,0
0.084,-0.259,0.27,114.99,-28.076,-259.338,0
0.018,-0.163,0.274,134.583,-24.17,-250.549,0
-0.016,-0.255,0.236,135.193,-27.649,-241.028,0
-0.017,-0.237,0.175,136.78,-32.349,-216.675,0
0.017,-0.291,0.09,134.277,-32.593,-182.434,0
0.007,-0.361,0.021,127.869,-24.414,-156.372,0
-0.02,-0.468,-0.036,124.878,-17.273,-137.573,0
-0.001,-0.497,-0.093,126.282,-13.733,-125.732,0
0.001,-0.473,-0.176,126.038,-12.39,-114.624,0
-0.036,-0.465,-0.263,116.211,-10.864,-100.159,0
-0.033,-0.529,-0.333,99.365,-10.559,-82.458,0
0,-0.616,-0.39,83.618,-12.573,-68.726,0
0.071,-0.639,-0.461,72.144,-11.597,-62.012,0
0.08,-0.599,-0.544,59.631,-8.118,-56.091,0
0.054,-0.576,-0.61,41.016,-2.441,-46.692,0
0.108,-0.699,-0.652,16.968,3.052,-30.334,0
0.117,-0.795,-0.65,-5.554,2.625,-23.376,0
0.161,-0.827,-0.608,-16.785,7.08,-21.912,0
0.149,-0.81,-0.607,-26.184,7.935,-13.916,0
0.238,-0.897,-0.578,-36.926,9.155,-0.61,0
0.2,-0.871,-0.568,-45.227,8.301,0.977,0
0.192,-0.801,-0.524,-51.636,1.953,10.986,0
0.209,-0.803,-0.477,-64.148,-6.592,24.902,0
0.261,-0.808,-0.436,-78.308,-13.672,37.476,0
0.3,-0.797,-0.388,-91.614,-14.709,44.434,0
0.294,-0.814,-0.313,-103.271,-13.855,50.171,0
0.294,-0.843,-0.242,-110.229,-17.578,54.443,0
0.312,-0.812,-0.183,-111.45,-23.499,53.894,0
0.308,-0.754,-0.137,-111.816,-28.015,56.396,0
0.299,-0.725,-0.086,-114.685,-32.41,63.599,0
0.313,-0.721,-0.038,-117.188,-38.452,70.496,0
0.33,-0.698,-0.004,-116.333,-44.067,71.533,0
0.364,-0.618,0.011,-113.098,-48.157,68.42,0
0.394,-0.5,0.017,-113.098,-49.316,66.589,0
0.405,-0.428,0.029,-120.972,-48.34,68.604,0
0.426,-0.38,0.048,-133.728,-48.645,67.932,0
0.41,-0.334,0.077,-147.4,-48.34,66.345,0
0.4,-0.346,0.127,-161.987,-49.072,65.369,0
0.37,-0.386,0.189,-173.889,-51.514,62.561,0
0.35,-0.408,0.238,-179.199,-54.993,60.181,0
0.336,-0.381,0.278,-178.04,-60.364,61.646,0
0.321,-0.359,0.34,-174.988,-70.068,66.589,0
0.307,-0.317,0.413,-170.288,-82.825,73.425,0
0.316,-0.239,0.5,-164.551,-98.267,81.299,0
0.421,-0.19,0.583,-159.058,-116.211,89.722,0
0.474,-0.109,0.672,-156.311,-131.47,95.398,0
0.605,-0.174,0.743,-153.442,-140.625,96.313,0
0.682,0.048,0.788,-145.081,-138.489,93.14,0
0.784,0.098,0.907,-147.949,-126.77,100.647,0
0.776,0.04,1.013,-159.302,-116.455,90.637,0
0.83,0.033,1.17,-155.579,-95.52,71.716,0
0.814,0.167,1.278,-145.264,-81.177,51.514,0
0.82,0.095,1.371,-137.329,-63.599,44.617,0
0.861,0.07,1.429,-125.061,-48.096,33.142,0
0.847,0.157,1.48,-105.896,-37.415,24.109,0
0.825,0.153,1.49,-94.849,-33.203,15.747,0
0.764,0.223,1.491,-86.487,-28.137,12.573,0
0.861,0.045,1.485,-81.726,-20.813,12.268,0
0.796,0.17,1.434,-73.242,-11.475,7.446,0
0.71,0.018,1.404,-70.679,-4.883,10.803,0
0.72,-0.097,1.388,-60.974,-2.136,3.296,0
0.669,-0.056,1.307,-43.274,-8.057,-1.892,0
0.66,-0.077,1.237,-31.006,-5.432,0.122,0
0.64,-0.164,1.183,-24.109,-1.77,2.563,0
0.61,-0.18,1.118,-14.648,-0.427,-0.61,0
0.602,-0.187,1.061,-3.174,3.174,-3.479,0
0.576,-0.149,1.002,3.784,6.775,-5.432,0
0.567,-0.151,0.943,4.7,10.498,-5.493,0
0.556,-0.181,0.903,1.892,11.841,-6.653,0
0.544,-0.162,0.869,-0.549,13.306,-8.423,0
0.541,-0.172,0.842,-4.395,16.052,-7.874,0
0.528,-0.202,0.833,-7.629,17.517,-8.24,0
0.508,-0.213,0.838,-6.348,16.968,-9.277,0
0.5,-0.21,0.832,-2.38,13.794,-10.254,0
0.488,-0.18,0.804,2.319,9.033,-8.911,0
0.536,-0.19,0.797,4.089,6.592,-5.859,0
0.499,-0.179,0.775,4.456,2.38,-4.517,0
0.509,-0.181,0.769,5.249,-1.709,-3.784,0
0.523,-0.202,0.763,5.981,-5.066,-6.226,0
0.524,-0.134,0.751,7.263,-6.348,-8.118,0
0.518,-0.144,0.751,2.991,-5.188,-2.747,0
0.51,-0.19,0.762,-3.296,-3.784,-0.366,0
0.516,-0.196,0.765,-4.211,-2.625,-1.465,0
0.516,-0.207,0.769,-2.136,-0.061,-2.869,0
0.506,-0.173,0.766,0.488,2.686,-3.174,0
0.502,-0.178,0.77,0.244,4.578,-1.404,0
0.499,-0.178,0.767,-0.244,4.089,-2.502,0
0.5,-0.164,0.768,0.427,3.174,-4.272,0
0.498,-0.154,0.77,0.061,1.77,-5.127,0
0.506,-0.148,0.773,-1.892,-0.305,-4.7,0
0.506,-0.154,0.776,-4.578,-1.892,-3.662,0
0.517,-0.172,0.785,-6.226,-2.991,-2.502,0
0.521,-0.178,0.786,-6.287,-3.662,-2.869,0
0.529,-0.174,0.788,-4.456,-3.052,-2.869,0
1.981,0.546,0.142,-10.437,-171.082,-30.396,0
2.034,0.508,0.201,-10.437,-181.519,-42.786,0
2.08,0.507,0.265,-6.653,-186.401,-56.58,0
2.131,0.51,0.331,-2.014,-185.913,-72.632,0
2.106,0.501,0.394,2.075,-177.917,-87.891,0
2.021,0.467,0.435,5.554,-166.443,-105.103,0
1.915,0.456,0.458,11.292,-156.372,-123.474,0
1.819,0.471,0.461,19.348,-148.254,-141.724,0
1.698,0.446,0.47,28.015,-142.517,-159.485,0
1.616,0.435,0.482,37.903,-136.536,-176.941,0
1.552,0.484,0.514,51.27,-126.892,-192.932,0
1.463,0.528,0.537,62.195,-114.258,-205.383,0
1.33,0.508,0.539,69.336,-101.563,-214.966,0
1.228,0.503,0.556,76.294,-89.905,-223.511,0
1.102,0.52,0.574,85.632,-79.468,-231.079,0
1.007,0.528,0.593,93.506,-73.059,-237.549,0
0.933,0.531,0.599,100.464,-67.2,-242.371,0
0.817,0.495,0.586,105.652,-61.401,-245.667,0
0.708,0.481,0.588,110.535,-56.824,-247.253,0
0.612,0.417,0.57,117.92,-53.406,-244.507,0
0.544,0.351,0.553,128.601,-50.171,-244.446,0
0.466,0.375,0.544,142.395,-44.312,-246.46,0
0.383,0.363,0.538,152.71,-35.828,-246.155,0
0.321,0.316,0.503,158.875,-27.71,-244.751,0
0.254,0.302,0.465,164.795,-18.127,-244.324,0
0.183,0.262,0.411,167.419,-6.531,-244.751,0
0.122,0.217,0.366,166.931,5.798,-244.629,0
0.047,0.18,0.31,164.917,18.433,-240.479,0
-0.001,0.108,0.264,159.485,31.189,-233.826,0
-0.065,0.036,0.201,152.954,44.006,-228.638,0
-0.121,-0.042,0.145,146.057,54.81,-220.703,0
-0.18,-0.099,0.098,139.709,60.913,-210.327,0
-0.195,-0.16,0.053,133.789,62.012,-196.655,0
-0.152,-0.228,0.003,127.319,58.35,-181.885,0
-0.242,-0.2,-0.046,121.338,54.504,-164.795,0
-0.275,-0.335,-0.003,115.234,42.175,-124.207,0
-0.082,-0.598,-0.076,113.403,1.038,-90.759,0
-0.084,-0.397,-0.162,117.249,7.263,-119.202,0
-0.045,-0.516,-0.162,114.136,11.353,-115.295,0
-0.027,-0.487,-0.178,109.009,2.808,-115.54,0
0.029,-0.513,-0.214,102.478,-2.38,-103.271,0
0.066,-0.542,-0.237,92.163,-3.662,-87.524,0
0.079,-0.576,-0.265,80.2,-4.761,-73.12,0
0.127,-0.631,-0.252,67.871,-6.775,-59.326,0
0.076,-0.613,-0.358,54.382,-9.705,-48.157,0
0.133,-0.62,-0.458,35.4,-12.146,-33.02,0
0.109,-0.646,-0.55,10.254,-8.972,-19.043,0
0.231,-0.835,-0.481,-9.216,-11.536,-17.456,0
0.362,-0.876,-0.368,-12.939,-21.912,-15.747,0
0.353,-0.793,-0.344,-7.996,-27.832,-13.733,0
0.435,-0.849,-0.29,-10.62,-25.146,-6.47,0
0.483,-0.862,-0.259,-16.479,-18.738,-1.709,0
0.44,-0.832,-0.25,-21.729,-6.958,3.784,0
0.433,-0.827,-0.273,-32.043,2.625,11.902,0
0.5,-0.913,-0.311,-46.021,10.01,18.616,0
0.416,-0.932,-0.3,-56.824,18.555,11.658,0
0.379,-0.947,-0.258,-64.209,16.724,10.864,0
0.315,-0.981,-0.237,-71.716,10.437,11.169,0
0.257,-0.95,-0.211,-75.867,-0.671,16.052,0
0.267,-0.966,-0.159,-79.285,-18.677,26.55,0
0.313,-0.972,-0.093,-80.505,-36.682,29.968,0
0.33,-0.914,-0.047,-78.674,-48.218,29.419,0
0.365,-0.865,-0.02,-78.003,-54.382,34.058,0
0.382,-0.818,-0.002,-80.383,-54.993,38.086,0
0.382,-0.799,0.037,-84.351,-51.819,41.931,0
0.356,-0.797,0.058,-87.646,-50.049,40.894,0
0.35,-0.743,0.048,-90.576,-46.814,29.907,0
0.32,-0.688,0.026,-96.985,-38.269,16.968,0
0.266,-0.607,0.02,-108.459,-29.602,7.446,0
0.193,-0.564,0.035,-124.146,-23.499,5.798,0
0.125,-0.549,0.042,-140.991,-24.536,6.042,0
0.075,-0.54,0.064,-155.457,-31.555,7.141,0
0.029,-0.536,0.099,-166.809,-40.1,10.498,0
0.029,-0.546,0.126,-175.11,-48.34,16.663,0
0.059,-0.554,0.153,-178.894,-54.443,24.292,0
0.11,-0.571,0.165,-179.077,-53.04,33.386,0
0.132,-0.567,0.158,-175.842,-43.152,43.03,0
0.136,-0.494,0.169,-170.959,-28.259,53.04,0
0.113,-0.383,0.214,-166.87,-13.428,65.552,0
0.121,-0.32,0.271,-167.603,-6.104,80.383,0
0.107,-0.226,0.332,-170.105,-8.911,95.703,0
0.181,-0.175,0.384,-171.143,-23.682,105.286,0
0.296,-0.028,0.463,-168.64,-41.809,111.877,0
0.433,0.075,0.615,-173.645,-57.861,121.582,0
0.557,0.067,0.793,-180.542,-70.801,123.413,0
0.741,0.202,1.014,-176.392,-75.623,113.159,0
0.928,0.338,1.22,-171.753,-77.209,107.117,0
1.1,0.317,1.397,-165.466,-68.359,104.614,0
1.215,0.364,1.516,-151.062,-51.331,81.055,0
1.237,0.461,1.616,-132.446,-29.358,53.101,0
1.175,0.459,1.686,-120.361,-13.733,37.903,0
1.12,0.386,1.705,-109.619,-4.15,26.306,0
1.047,0.321,1.7,-95.154,0.916,17.151,0
0.958,0.23,1.663,-79.59,-0.916,10.62,0
0.931,0.087,1.587,-60.913,-4.639,8.728,0
0.841,0.01,1.475,-39.368,-9.888,7.996,0
0.753,-0.032,1.367,-19.836,-15.381,2.991,0
0.673,-0.029,1.248,-6.287,-18.86,1.038,0
0.686,-0.159,1.17,-3.174,-13.733,1.648,0
0.598,-0.154,1.104,-0.061,-21.606,-1.953,0
0.625,-0.158,1.021,4.517,-19.226,-1.953,0
0.601,-0.172,0.969,2.136,-5.798,0.366,0
0.548,-0.161,0.915,-3.052,1.77,0.061,0
0.551,-0.267,0.882,-3.479,10.864,1.221,0
0.539,-0.264,0.877,-2.502,15.808,-4.211,0
0.522,-0.201,0.814,-0.793,13.306,-10.071,0
0.528,-0.247,0.81,1.709,17.761,-5.615,0
0.484,-0.198,0.789,0.122,18.86,-7.751,0
0.479,-0.21,0.789,0.671,12.695,-4.089,0
0.472,-0.178,0.773,0.793,5.859,-1.221,0
0.478,-0.164,0.775,0.732,1.709,5.554,0
0.492,-0.229,0.784,0.305,-5.798,9.094,0
0.505,-0.167,0.776,6.226,-14.465,5.92,0
0.541,-0.15,0.765,9.216,-18.86,5.31,0
0.554,-0.139,0.754,7.019,-15.808,4.944,0
0.549,-0.146,0.751,2.93,-10.071,4.7,0
0.535,-0.158,0.758,-0.305,-4.028,2.258,0
0.524,-0.172,0.753,-1.099,1.465,-2.075,0
0.502,-0.169,0.755,0.122,7.996,-5.676,0
